current time,GRAVx,GRAVy,GRAVz,ACCx,ACCy,ACCz,NACCx,NACCy,NACCz
82081.827442,0.13279839,-0.30645782,9.653421,0.07098068,-0.11535526,4.752185,-0.1291332,0.3296707,-9.666861
82081.84606,0.07491625,-0.13939466,4.828435,0.027212312,-0.0002538368,1.9103105,-0.016941622,0.13925838,-0.04421997
82081.864944,0.05711173,-0.09136531,3.2147267,0.01404729,0.020632802,1.6070013,-0.027086575,0.14798412,-0.015726661
82081.885267,0.05711173,-0.09136531,3.2147267,0.018798904,-0.026666446,1.3960631,-0.027813388,0.111199,0.011068208
82081.905841,0.046186134,-0.06453104,2.4080534,0.018798904,-0.026666446,1.3960631,-0.018535454,0.08874897,1.2177871
82081.926213,0.03849765,-0.04768097,1.9282291,0.01664412,0.00488888,1.2056589,-0.020477343,0.0848585,1.9526132
82081.945361,0.032013617,-0.035403866,1.6074716,0.011990477,0.004519074,1.0810688,-0.027969891,0.103452474,0.8967453
82081.963994,0.030227676,-0.030085858,1.3796766,0.016858313,0.0012989551,0.96668446,-0.02622471,0.09135635,1.5087274
82081.982613,0.027906619,-0.024772685,1.2075022,0.016436404,0.0027723454,0.87576866,-0.027431568,0.08928939,1.3092953
82082.001226,0.023784246,-0.02048665,1.0733544,0.017922668,-0.005811129,0.81151944,-0.024575885,0.081001066,1.1627978
82082.019864,0.022498772,-0.020625975,0.96419746,0.023565173,0.0020008397,0.7264919,-0.018607093,0.08142003,1.032314
82082.038479,0.021123575,-0.016979001,0.8774511,0.023830524,-0.0031782058,0.68778366,-0.012478124,0.07718275,0.93540525
82082.057102,0.020211274,-0.013282237,0.8046915,0.023463551,-0.005978883,0.6395158,6.1318926e-05,0.060837932,1.274327
82082.075724,0.019214809,-0.011247343,0.74025536,0.010715267,0.0041494463,0.5918521,0.0019711817,0.051287312,1.618783
82082.094349,0.019898606,-0.009845035,0.6857471,0.014711775,0.00042840795,0.5674918,-0.0034455464,0.051779184,1.2248534
82082.112984,0.019241191,-0.00791749,0.639752,0.016246835,-0.005253898,0.5367334,0.0003918844,0.036819194,1.2263765
82082.131579,0.018369887,-0.007831866,0.5997228,0.015906151,-0.0011379424,0.5062304,0.008536511,0.035362963,1.6273404
82082.150562,0.018369887,-0.007831866,0.5997228,0.015906151,-0.0011379424,0.5062304,0.010948448,0.03393498,1.6254376
82082.170095,0.017832916,-0.0065105907,0.5642685,0.021750765,-0.0020174445,0.96163195,0.010562946,0.031055925,1.2213503
82082.18872,0.017776165,-0.0058312556,0.53265953,0.022693053,-0.0040540583,0.921621,0.014042847,0.024644643,1.2185286
82082.207356,0.01628,-0.00480979,0.50399685,0.027090555,-0.0053165164,0.8802691,0.02092348,0.021916538,0.8147761
82082.225978,0.016448077,-0.0034463997,0.47833285,0.021091577,-0.002834153,0.83648485,0.02836713,0.012219441,1.2132002
82082.244599,0.015449648,-0.0025942991,0.4555992,0.019585142,-0.005060344,0.7997653,0.032270964,0.0033575334,1.6043092
82082.263223,0.014583989,-0.0027209586,0.4343592,0.019652802,-0.00074552535,0.7976077,0.030700875,0.0012817495,1.6052145
82082.281864,0.01430674,-0.002286997,0.41436744,0.017648106,-0.0017636336,0.8018349,0.02631029,0.00073630986,2.0031655
82082.300471,0.013929398,-0.0015775902,0.39718345,0.019500086,-0.008402699,0.8020754,0.015166965,0.008487503,1.6000105
82082.319106,0.013396786,-0.0015575802,0.39787814,0.025104292,-0.0058722007,0.80356836,0.034861043,-0.0021089306,2.00788
82082.337724,0.014018219,-0.0028443746,0.3982233,0.01849938,-0.00802698,0.80117315,0.037729736,-0.011439654,2.4043431
82082.35635,0.01428697,-0.0031764538,0.3984287,0.02134943,-0.0042238454,0.8055021,0.037877817,-0.0068779984,2.4022443
82082.374921,0.017034112,-0.0073197507,0.7982059,0.018211352,-0.001271983,0.39256862,0.038559187,-0.0027580473,1.9900556
82082.395323,0.017034112,-0.0073197507,0.7982059,0.011979529,-0.011391998,0.39747426,0.033062812,-0.01171364,1.9929065
82082.415733,0.017500406,-0.007913469,0.7984205,0.015120891,-0.008180349,0.394706,0.032893345,-0.011357301,1.9888825
82082.436239,0.016811905,-0.009738107,0.7987895,0.015120891,-0.008180349,0.394706,0.034335967,-0.01967275,2.3908412
82082.455687,0.015956081,-0.008455073,0.7982597,0.019246211,-0.009506521,0.39878044,0.0336969,-0.021746924,2.3919022
82082.474315,0.016240638,-0.009269364,0.7982634,0.017190611,-0.0036477882,0.39515004,0.029669987,-0.015805729,1.9913363
82082.492936,0.016236605,-0.010005207,0.7978757,0.016311096,-0.0046658963,0.3952177,0.027565321,-0.0055180253,1.5951494
82082.511558,0.017806036,-0.010709616,0.798316,0.01201303,-0.0060255695,0.3962693,0.02370465,-0.010219806,1.6030437
82082.530184,0.017209006,-0.010086156,0.7992916,0.0137805985,-0.0053470484,0.3972365,0.025253797,-0.016008751,1.6106163
82082.548815,0.016935498,-0.0102806445,0.79839355,0.01423875,-0.0068233064,0.3926872,0.023370251,-0.0131089175,1.6082846
82082.568272,0.012685019,-0.003805361,0.39669213,0.014102783,-0.0060597244,0.39424786,0.010091208,-0.013322002,1.6062583
82082.586063,0.012633953,-0.0037895758,0.39641547,0.013491917,-0.0031387333,0.39618492,0.008350861,-0.0046526226,1.2063885
82082.604689,0.012942872,-0.0030138127,0.39596546,0.01651472,-0.009845455,0.39015672,0.015301795,-0.021147067,1.5958825
82082.623324,0.013429324,-0.0031401832,0.39588812,0.01698962,-0.0067040916,0.39633763,0.010774511,-0.026228815,1.601205
82082.641946,0.013268982,-0.003234781,0.39574996,0.011130887,-0.0012043269,0.39496052,0.011932227,-0.016747227,1.5995626
82082.660679,0.013782608,-0.003381338,0.39549145,0.0073986915,-0.008267386,0.4020945,0.00049910136,-0.023683334,1.6148204
82082.680977,0.013782608,-0.003381338,0.39549145,0.009637878,-0.007894297,0.39752516,-0.0060279355,-0.032257788,2.0178094
82082.701783,0.013669892,-0.0039208783,0.39529014,0.009637878,-0.007894297,0.39752516,-0.012714624,-0.030544406,1.6117634
82082.721842,0.017657932,-0.0046046176,0.799257,0.012049816,-0.0003221836,0.39350167,-0.013846519,-0.03291841,1.6107553
82082.741279,0.017252287,-0.003468072,0.799622,0.013254142,-0.0035312034,0.39611724,-0.012894292,-0.033208948,1.6113526
82082.759914,0.01700375,-0.0019140792,0.8012015,0.008280836,-0.0046028476,0.39752516,-0.016214695,-0.04199234,2.0142753
82082.778521,0.017551553,-0.0026001034,0.8018853,0.01068949,0.0007300798,0.39908585,-0.018429253,-0.036440022,1.6106964
82082.797162,0.018763145,-0.002294743,0.8024238,0.014594433,-0.0012578624,0.39131013,-0.015337129,-0.037042655,1.6093127
82082.815775,0.01869759,-0.002238566,0.80238104,0.016786,-0.0076565207,0.39737245,-0.007870586,-0.045739513,1.6137613
82082.8344,0.018372307,-0.0025069953,0.8017668,0.01257299,-0.0021373755,0.39557138,-0.006568542,-0.049040258,2.0146377
82082.853025,0.018161623,-0.0028513744,0.801646,0.013220641,-0.012121427,0.39343405,-0.011433582,-0.054891303,2.0192983
82082.871667,0.018618325,-0.0028655808,0.80130005,0.020724447,-0.0031581142,0.79783154,-0.007950582,-0.05171911,2.4242756
82082.89029,0.014342524,-0.0012130927,0.39660832,0.020368109,-0.0038533863,0.79516506,0.0011100145,-0.054673195,2.826472
82082.908903,0.014540531,-0.001083442,0.39665616,0.02125025,-0.01149644,0.79103976,0.0115010515,-0.047009703,2.4066591
82082.927555,0.014904202,-0.001064864,0.39655235,0.017583081,-0.0023945326,0.791447,0.013812718,-0.03237984,2.3932896
82082.946259,0.014655709,-0.0013289619,0.39660886,0.021199346,-0.0049082795,0.7942321,0.02215936,-0.03542035,2.7978375
82082.96672,0.014655709,-0.0013289619,0.39660886,0.012013029,-0.0017160112,0.391497,0.02145142,-0.0366536,3.1916444
82082.987017,0.014714424,-0.002627942,0.39669445,0.013373355,-0.0051260227,0.39679578,0.025118588,-0.035649613,3.191169
82083.007417,0.013479273,-0.008774379,0.79932195,0.013373355,-0.0051260227,0.39679578,0.033176277,-0.039638754,3.1847165
82083.026861,0.013481979,-0.009007371,0.7984977,0.016477935,-0.005213713,0.3922632,0.033596087,-0.039395656,3.185338
82083.045494,0.013699733,-0.00897001,0.79846174,0.014900518,-0.008420102,0.3979492,0.034588374,-0.053296074,3.5976894
82083.064109,0.013879087,-0.008961682,0.79825085,0.01829641,-0.0014614841,0.3921614,0.026742896,-0.038681936,3.1900568
82083.08276,0.013577606,-0.009605964,0.79845196,0.018058633,0.0013383148,0.3914487,0.029861653,-0.037479136,2.7869413
82083.101364,0.01352046,-0.009619184,0.79823047,0.017396862,-0.0010026827,0.3913469,0.030309841,-0.019031303,2.3889644
82083.120016,0.014247232,-0.009731892,0.7987647,0.013017018,-0.000171445,0.39233088,0.02689173,-0.026223458,2.3823671
82083.138623,0.014411633,-0.009148113,0.79910535,0.01753283,-0.004805817,0.3956591,0.029407306,-0.039274648,2.3852406
82083.15724,0.018094847,-0.014149015,1.2004482,0.011928623,-0.0003583155,0.39161554,0.020947337,-0.032438267,2.3844357
82083.175923,0.018566964,-0.01470314,1.2008047,0.015986284,-0.0011728028,0.39380714,0.021857334,-0.034890626,1.9911705
82083.194494,0.018456591,-0.01447826,1.1996474,0.017173862,-0.0034970485,0.39833966,0.024325192,-0.042327087,2.4002228
82083.213135,0.018386424,-0.014024322,1.1993413,0.013794721,0.0028674554,0.39479104,0.023712913,-0.0347807,2.4082582
82083.231747,0.02002749,-0.007099094,0.7967221,0.01067339,-0.0031774954,0.39750847,0.014908894,-0.036471967,2.4092455
82083.252177,0.02002749,-0.007099094,0.7967221,0.015612543,-0.0029229682,0.3993404,0.013180097,-0.034688402,2.4169734
82083.272679,0.019983878,-0.008544418,0.79623383,0.015612543,-0.0029229682,0.3993404,0.012210265,-0.03423026,2.4163458
82083.292999,0.019369047,-0.008906956,0.7953429,0.01143632,-0.0048058163,0.39818692,0.0072028576,-0.019620586,2.0219457
82083.312451,0.018293569,-0.0075961016,0.7953768,0.014424968,0.0058025676,0.4028581,0.0069506117,-0.019248703,2.0226977
82083.331083,0.019109383,-0.0077190795,0.7965396,0.014883116,-0.00068049814,0.39833966,0.008380219,-0.025915349,2.431435
82083.349706,0.023833806,-0.014963972,1.2016027,0.009230634,-0.0008164644,0.39823785,-0.0028827887,-0.01762877,2.0311012
82083.368325,0.023984442,-0.013910738,1.2023813,0.01418719,0.007077833,0.39633498,0.001910218,-0.0009513597,2.0334747
82083.387004,0.024138222,-0.013686761,1.2034926,0.011096732,0.0066196844,0.39703354,-0.0063606687,0.024540106,2.0323129
82083.405593,0.027199334,-0.018192632,1.6050469,0.013491918,-0.0024789397,0.39713535,-0.0030013758,0.026094059,1.6363425
82083.424211,0.02794435,-0.018385435,1.6053311,0.019214686,-0.0024789397,0.3926169,0.0037323674,0.02438972,1.6333843
82083.442829,0.02829055,-0.017919831,1.6052604,0.015001677,-0.0019022292,0.39847565,0.00067050505,0.029148092,1.2273885
82083.461461,0.028095657,-0.017759712,1.6054201,0.010757797,-0.004619599,0.39735308,-0.0023484079,0.019364772,0.82486504
82083.480079,0.027927527,-0.018204063,1.6052257,0.014934021,-0.000850619,0.40081665,0.0093570985,0.025014794,0.8284367
82083.498709,0.02786751,-0.017815128,1.6059786,0.01849938,-0.0056886133,0.40255007,0.021777565,0.014806245,1.235205
82083.517457,0.02833922,-0.01751048,1.6058494,0.012047186,-0.0027167164,0.3976953,0.020990068,0.017120956,1.2314986
82083.537221,0.02833922,-0.01751048,1.6058494,0.012047186,-0.0027167164,0.3976953,0.020990068,0.017120956,1.2314986
82083.555832,0.028211897,-0.017233083,1.6062855,0.02084366,-0.0035988595,0.3998836,0.02694574,0.007909578,1.2255691
82083.574451,0.027910935,-0.017792681,1.6065232,0.016274313,-0.004246509,0.40076575,0.023779614,0.010995808,0.8226876
82083.593072,0.023369437,-0.011719423,1.2028593,0.016477935,0.0011540742,0.40268603,0.03271534,0.006812122,1.2298089
82083.611706,0.022462443,-0.011442035,1.2093276,0.013183855,-0.000559307,0.39691237,0.026190674,-0.00603064,1.2234145
82083.630325,0.018695032,-0.0065678153,0.8129985,0.013082042,-0.0096612135,0.40614495,0.026284395,-0.037029486,1.2226521
82083.648964,0.022708612,-0.011224699,1.2189595,0.01435731,-0.0048064697,0.41593358,0.024662072,-0.03922111,1.2263049
82083.667591,0.022053247,-0.010816538,1.2275759,0.012522084,0.00059411436,0.4216015,0.016279362,-0.034459982,1.2262098
82083.686214,0.021692835,-0.011404953,1.2421504,0.016582377,-0.0059940456,0.4376193,0.02444867,-0.043229103,1.6166908
82083.704827,0.021135293,-0.010779318,1.2446824,0.012304343,-0.0056377077,0.44261065,0.026799716,-0.042937834,1.6181417
82083.723473,0.021239078,-0.009958223,1.2481672,0.01406863,0.0011373232,0.44345665,0.02600876,-0.039427076,1.6041145
82083.742089,0.021431973,-0.00957046,1.2511694,0.011605788,-0.0018004188,0.4467655,0.012501247,-0.03389633,1.5879344
82083.762229,0.021431973,-0.00957046,1.2511694,0.012406153,-0.000188848,0.45039654,0.012977165,-0.03039898,1.5848497
82083.782684,0.02556411,-0.014349659,1.6543932,0.019876458,-0.0013596729,0.45649043,0.01226449,-0.027752548,1.5839844
82083.803044,0.025644273,-0.015036113,1.6550264,0.019876458,-0.0013596729,0.45649043,0.01599737,-0.029500991,1.5828161
82083.822789,0.029417112,-0.019661319,2.0572975,0.013848257,-0.008253265,0.45671144,0.018900828,-0.0384567,1.9849528
82083.841419,0.029639862,-0.020623336,2.061009,0.010554177,-0.0018319428,0.45732036,0.013796863,-0.039101876,1.9770285
82083.860044,0.029835813,-0.020999843,2.0630233,0.015598423,0.0012384815,0.46297285,0.015114448,-0.033088263,1.5832353
82083.878684,0.026222253,-0.016010761,1.6602474,0.016073322,-0.0008988941,0.4671129,0.018147346,-0.011944179,1.1832019
82083.897302,0.026237197,-0.01577115,1.6553932,0.009536067,-0.0013737939,0.456741,0.019775009,-0.013435694,1.9685982
82083.915923,0.026288645,-0.016544396,1.6435734,0.0154457055,-0.0057736724,0.44729197,0.023781171,-0.017547127,1.9663492
82083.934589,0.026187422,-0.016431713,1.6427704,0.0140177235,-0.0053155236,0.45058608,0.014467756,-0.010388311,1.5748992
82083.953171,0.026502348,-0.016324973,1.6434565,0.013814102,-0.009848085,0.44851568,0.014655762,-0.012779064,1.5754337
82083.971797,0.025692582,-0.015669119,1.6407565,0.011897097,-0.005366429,0.44571325,0.012042527,-0.022732684,1.5805063
82083.990419,0.02533718,-0.016162893,1.640851,0.013969447,-0.0027676218,0.4377024,0.013885163,-0.017811332,1.1793052
82084.009046,0.025544709,-0.016793767,1.6406523,0.010980801,-0.00018621795,0.43814313,0.015215741,-0.016611028,1.1790828
82084.027686,0.025236458,-0.01549665,1.6358417,0.011048458,0.0013918505,0.43585503,-0.0010823976,-0.011897285,0.7717201
82084.047856,0.025236458,-0.01549665,1.6358417,0.0105735585,0.0013750993,0.4356514,0.0014887409,-0.0021803416,1.1691351
82084.068263,0.025371939,-0.014510105,1.6332669,0.010369936,-0.0076926537,0.42952597,0.004155204,-0.011757149,1.1713241
82084.088657,0.024525328,-0.0140870055,1.6301855,0.010369936,-0.0076926537,0.42952597,-0.0045854542,-0.019036202,1.1665334
82084.108388,0.024505256,-0.0136702815,1.6257195,0.004290831,-0.0017521437,0.42329618,-0.0075400374,-0.02551367,1.561863
82084.127022,0.019544378,-0.009894564,1.2241387,0.013765827,-0.0024815712,0.42250037,-0.0023951335,-0.037788287,1.9613439
82084.145631,0.019117067,-0.010133105,1.2209078,0.008212527,0.0033771626,0.41664624,-0.002157654,-0.035458628,1.9750386
82084.164268,0.019101236,-0.010129596,1.2218076,0.012185127,0.0025459242,0.4222846,-0.0035354032,-0.032695495,1.9870104
82084.182892,0.01985427,-0.010571562,1.2193719,0.010078624,0.0059552826,0.42170525,-0.0056314464,-0.02291402,1.9898691
82084.196954,0.019455232,-0.009710002,1.2198607,0.01427488,0.0029866693,0.41871858,-0.0029699847,-0.013596054,1.992823
82084.215166,0.020041917,-0.0115488395,1.2161857,0.009196482,0.0017649392,0.41838428,-0.006022422,-0.000796811,1.600289
82084.233803,0.016363958,-0.007125277,0.8131278,0.012063935,-0.0054166825,0.4060727,-0.0077095567,-0.013275602,2.001438
82084.252424,0.015971212,-0.0070796236,0.8119337,0.0117585035,-0.002872063,0.40901044,-0.005756865,-0.025399342,2.407082
82084.272237,0.015971212,-0.0070796236,0.8119337,0.015052584,-0.0027193471,0.40957037,-0.0010743104,-0.032564834,2.4099147
82084.292656,0.015037682,-0.006802272,0.8100961,0.015103489,-0.0029738739,0.41357717,0.0012666875,-0.035844788,2.4147692
82084.313047,0.015038587,-0.007361517,0.8110636,0.015103489,-0.0029738739,0.41357717,0.0015999423,-0.025486812,2.019559
82084.333123,0.014925118,-0.006668782,0.8111852,0.016172504,1.477326e-05,0.41116783,0.0025603827,-0.025395988,2.0200245
82084.351934,0.014987938,-0.0068911524,0.8112974,0.014493276,-0.000985932,0.40093192,0.013472886,-0.017311698,1.6216663
82084.37038,0.015217113,-0.0070730336,0.80847496,0.018041885,-0.0038218629,0.40772566,0.014159528,-0.019370152,1.6314539
82084.389003,0.019113272,-0.010515192,1.2077737,0.011623192,-0.004398573,0.40203705,0.011320437,-0.021403136,0.82611257
82084.407631,0.02003389,-0.010741532,1.207478,0.011623192,0.007892319,0.40538204,0.007607205,-0.015118551,0.8208861
82084.426251,0.02368172,-0.018015781,1.6088971,0.011487224,-0.0035505851,0.40079787,0.008095737,-0.023286754,0.8175934
82084.44488,0.023639664,-0.019496186,1.6089072,0.02135206,-0.004534539,0.8018845,0.009669389,-0.024872407,0.8085334
82084.463512,0.024138192,-0.019558366,1.6071995,0.020467287,-0.008337673,0.8059783,0.01661257,-0.037455183,1.2057551
82084.482135,0.020425366,-0.012265566,1.2044572,0.021247618,-0.0032083672,0.80271834,0.02362824,-0.02381769,1.2065947
82084.500777,0.020419834,-0.012614953,1.2037553,0.021094903,-0.005382528,0.8078785,0.024977958,-0.01569151,0.80688715
82084.519382,0.02043635,-0.012903824,1.2032076,0.016783366,0.0006088878,0.39792785,0.02345992,-0.0106663145,0.8026665
82084.538018,0.020943463,-0.01234969,1.2036587,0.01991061,-0.005979272,0.3994918,0.035855327,-0.02556876,1.1960285
82084.558007,0.020943463,-0.01234969,1.2036587,0.011792656,-0.0022102918,0.4000685,0.031487238,-0.028840445,1.1914115
82084.578286,0.021782225,-0.013219249,1.2035737,0.020216042,-0.00079971366,0.4013237,0.037922684,-0.026821634,1.1974537
82084.598755,0.022014648,-0.013143205,1.2027191,0.020216042,-0.00079971366,0.4013237,0.03796008,-0.022147404,1.1955714
82084.618716,0.025890535,-0.017492376,1.6034589,0.012556239,-0.002513095,0.40378654,0.035758074,-0.021000711,1.1862639
82084.637388,0.026061758,-0.01784114,1.6025642,0.021878518,-0.00971212,0.8005101,0.049577802,-0.023965517,1.9966403
82084.65597,0.026373582,-0.01788131,1.6017882,0.020654159,-0.0124462405,0.7909527,0.05273561,-0.03561145,1.9924973
82084.674574,0.025604596,-0.018172786,1.6032687,0.014187843,-0.0017642867,0.39792785,0.05325046,-0.031981967,1.9895817
82084.693247,0.025624325,-0.017954813,1.6037078,0.0153754195,-0.01101891,0.4034135,0.049609076,-0.039457534,1.9966797
82084.711855,0.025327584,-0.0173532,1.6041762,0.01933127,-0.006941868,0.40247977,0.053150117,-0.0358962,1.9994074
82084.730465,0.028920323,-0.021623513,2.0050237,0.019585798,-0.004835364,0.39979658,0.051254332,-0.0314711,1.603621
82084.749115,0.029985495,-0.022332735,2.00509,0.0112166,-0.009913764,0.39850715,0.03683251,-0.035618458,1.6003447
82084.767728,0.034376055,-0.026816877,2.4057574,0.016902583,-0.003631037,0.39726868,0.033001356,-0.027953917,1.6014066
82084.786349,0.03405517,-0.026626112,2.4053438,0.017937444,-0.012071174,0.39748904,0.017966598,-0.015763504,1.2049731
82084.804984,0.03394398,-0.026549585,2.405937,0.020078102,-0.006976022,0.39767596,0.022648202,-0.012990184,1.2046723
82084.823616,0.034254357,-0.02588108,2.4045236,0.018039253,-0.011372618,0.3937368,0.0124239,-0.023575127,1.1974936
82084.843613,0.034254357,-0.02588108,2.4045236,0.017784726,-0.011728956,0.3959793,0.014279573,-0.028131634,1.1957692
82084.863891,0.03538117,-0.026182652,2.4041502,0.015169165,-0.008434877,0.39436445,0.008353181,-0.024311753,0.7917791
82084.884338,0.03751876,-0.032124687,2.8030508,0.015169165,-0.008434877,0.39436445,0.0015664961,-0.013552153,0.3909656
82084.904306,0.035004273,-0.02703227,2.4040484,0.016037188,-0.0034274154,0.39723453,0.00080101937,-0.012545399,0.391181
82084.922949,0.034921646,-0.02695617,2.4037926,0.016461182,-0.004529931,0.3963015,0.0015716199,-0.011821155,0.3935934
82084.94157,0.03499507,-0.02704013,2.4038153,0.017733818,-0.007569484,0.39986682,0.0062102177,-0.012302116,0.79951066
82084.960194,0.035088465,-0.029566793,2.805461,0.016138999,-0.009659237,0.39852655,-0.0037009402,-0.006757121,-0.0073602996
82084.978806,0.03461718,-0.029974258,2.8053799,0.0201116,-0.007824011,0.40040943,0.0023864845,-0.017312333,0.4025521
82084.997439,0.040098544,-0.03504487,3.2060385,0.01284492,-0.004020877,0.3964368,0.00722562,-0.006914064,0.4050821
82085.016074,0.040398788,-0.032312125,2.8045883,0.012709609,-0.0034100115,0.39492705,0.001856563,-0.01496366,0.8065894
82085.034699,0.04330522,-0.03803736,3.2056572,0.01668221,-0.004529931,0.40096936,-0.0006378905,-0.0047217025,0.81559616
82085.053317,0.04732515,-0.04319702,3.6066341,0.017513448,-0.0035459772,0.3997818,-0.0035722656,0.0014740732,0.8251422
82085.071938,0.043072462,-0.038310263,3.2054422,0.015155047,-0.0029860176,0.39278638,-0.005884281,0.015595123,0.82615143
82085.090588,0.042686254,-0.037788775,3.2054536,0.019246208,-0.001933754,0.3997309,-0.0020207437,0.025079774,0.8330288
82085.109207,0.041872803,-0.036922347,3.2058735,0.013998341,-0.008471007,0.397339,0.00086390506,0.015343613,1.2361408
82085.129126,0.04088035,-0.04250544,3.605971,0.010418862,-0.0035479541,0.3960637,-0.0015083005,0.014875014,0.8350919
82085.14952,0.04088035,-0.04250544,3.605971,0.016003035,0.0027147392,0.39349905,-0.0015592076,0.017945439,0.83305293
82085.170183,0.042690426,-0.037703924,3.2056112,0.016003035,0.0027147392,0.39349905,0.0010152842,0.024191042,1.2326009
82085.189909,0.042138305,-0.03793487,3.2054155,0.012929328,0.0029692661,0.4014643,-0.00063942204,0.029497871,1.2340827
82085.208534,0.03793599,-0.032592207,2.8042219,0.017295053,-0.00074880786,0.39334634,0.003478366,0.03038244,1.6297611
82085.227174,0.033558268,-0.027384488,2.4029047,0.01935065,0.0013409451,0.39560553,0.0073531643,0.03659208,1.6191096
82085.245776,0.029181449,-0.022951342,2.0006225,0.015802043,0.0016972834,0.3943162,0.023588559,0.03168007,2.0160036
82085.264414,0.032269597,-0.027130736,2.40235,0.018485257,-0.0045003835,0.3945707,0.03277034,0.030197347,1.2129444
82085.283027,0.033780977,-0.027237719,2.402043,0.013288296,0.0005070772,0.39158204,0.03848717,0.020358263,1.5957252
82085.301656,0.037798405,-0.030802509,2.8040507,0.012507963,0.0013892204,0.3993745,0.037475754,0.0138577,1.5943941
82085.320296,0.032921687,-0.025665963,2.4024613,0.0144926235,0.004004779,0.39278638,0.03667446,0.01432658,1.1960396
82085.338908,0.032659262,-0.024985386,2.402591,0.01249056,0.00091432006,0.39411256,0.032899324,0.011783696,1.1916071
82085.357531,0.033557113,-0.02502297,2.4025497,0.011608417,0.0015928423,0.39348495,0.037023846,0.013302927,1.586907
82085.376146,0.033672478,-0.02458728,2.40165,0.01201566,-0.0044862633,0.39886546,0.039494716,0.0025206516,1.9914365
82085.394804,0.033726346,-0.024628295,2.4015539,0.014529408,-0.002701943,0.3969994,0.04202844,-0.016113942,2.001785
82085.414806,0.033726346,-0.024628295,2.4015539,0.01879069,-0.00023910093,0.40070072,0.048602477,-0.02222392,2.0019376
82085.435132,0.033698946,-0.025238082,2.4017165,0.01879069,-0.00023910093,0.40070072,0.053359713,-0.028236404,2.0032837
82085.454395,0.03421421,-0.025096118,2.4018648,0.014645338,0.0023932084,0.39460483,0.057455864,-0.031816736,2.4030805
82085.473023,0.030008392,-0.019889398,2.00096,0.0123043405,0.0062607154,0.39679313,0.04357892,-0.024245227,2.4051456
82085.491664,0.030190146,-0.019586148,2.0010927,0.014509372,-0.0076759025,0.80156356,0.035050437,-0.024828402,2.0063043
82085.510258,0.026173001,-0.013831624,1.600294,0.009518662,-0.01981408,1.1991352,0.02866079,-0.027982762,2.4138873
82085.527672,0.021582358,-0.0096245995,1.199566,0.01006187,-0.01161435,0.78509325,0.021261618,-0.027802266,2.015003
82085.546299,0.021978863,-0.009714976,1.199448,0.008958703,-0.0015117364,0.3945681,0.0206556,-0.030346727,2.0051386
82085.5649,0.021561563,-0.009446346,1.198011,0.019553619,0.0041909968,0.3933148,0.037910815,-0.027424486,2.408569
82085.583511,0.024699131,-0.016914692,1.608943,0.009976813,-0.0022753186,0.40155134,0.03273164,-0.02285117,2.0084808
82085.602153,0.021631291,-0.01019792,1.1986217,0.010471746,-0.00040922096,0.39481047,0.028515391,-0.019430624,1.6135759
82085.620778,0.022099892,-0.009832156,1.1987044,0.01021722,-0.0003241611,0.3941996,0.027460353,-0.013884562,1.6112913
82085.639397,0.022346808,-0.009935669,1.1993327,0.010013598,-0.0031942471,0.38683107,0.020913502,-0.011997357,1.5961744
82085.659541,0.022346808,-0.009935669,1.1993327,0.006550051,-0.0028888143,0.38917208,-4.5225024e-06,-0.015054275,1.5800165
82085.679942,0.025824385,-0.014618176,1.6020269,0.0077543776,0.0051582004,0.390651,-0.0047065523,-0.0121874735,1.5807968
82085.700454,0.026096812,-0.014295858,1.6021894,0.0077543776,0.0051582004,0.390651,-0.010068043,-0.013518587,1.5830692
82085.720106,0.025876058,-0.013620578,1.6021385,0.009416853,0.001985965,0.39363965,-0.01039924,-0.017596496,1.5846049
82085.738744,0.022514202,-0.009440745,1.2002107,0.011201173,-0.0008332152,0.3927575,-0.010780432,-0.018402169,1.5861851
82085.757945,0.019304356,-0.003827788,0.7985675,0.0124738095,-0.0034320224,0.3881205,-0.0039629103,-0.022611754,1.9743344
82085.769773,0.01914095,-0.004698288,0.7985136,0.010265495,0.00050970726,0.39224577,-0.0044753067,-0.014993784,1.9799986
82085.788527,0.01976564,-0.0051422487,0.7992468,0.0117075965,0.0033423554,0.38956258,-0.0036949192,-0.007161697,1.9793577
82085.807008,0.019469358,-0.004919781,0.79886407,0.011385414,-0.00050840137,0.39856267,-0.024055257,-0.013587239,1.9908727
82085.825667,0.021043325,-0.010752435,1.1987371,0.0130679235,-0.0028694328,0.39207634,-0.02205003,-0.013149227,1.990829
82085.84316,0.01807196,-0.0036819875,0.7977991,0.011589035,-0.0016309513,0.39846087,-0.021063492,-0.017563293,2.400675
82085.863618,0.01807196,-0.0036819875,0.7977991,0.014000972,-0.0020549458,0.3888673,-0.021693816,-0.013099364,1.9930773
82085.883963,0.020499647,-0.00867977,1.1988206,0.014000972,-0.0020549458,0.3888673,-0.01673726,-0.01156957,1.9946718
82085.90435,0.019903077,-0.008388262,1.1983901,0.017413614,-0.0031916164,0.3890877,-0.012274819,-0.0016062778,1.5974282
82085.92376,0.019363146,-0.008528932,1.1985072,0.013288296,-0.0019531352,0.3890877,-0.005949652,0.0005887539,1.5963769
82085.942422,0.018963737,-0.008229524,1.1990577,0.014289002,-0.0012404589,0.39577767,0.005545752,-0.010824491,1.6027808
82085.961002,0.018851113,-0.0075949593,1.1994728,0.015191178,-0.003906923,0.39375624,0.015005193,-0.020574614,1.5963068
82085.979623,0.02055868,-0.007837118,1.1989511,0.015649328,0.0022739936,0.38382304,0.023905108,-0.018108333,1.9750069
82085.998248,0.020764193,-0.0067885364,1.1988721,0.013033769,-0.0008673699,0.39353585,0.022273073,-0.0095646335,1.5818089
82086.016889,0.02072225,-0.0065870136,1.198771,0.014899866,0.00042201704,0.39399397,0.034644347,-0.016012954,1.9808106
82086.035521,0.021025658,-0.0069124154,1.1995558,0.010452366,0.007824663,0.39609787,0.033833105,-0.0117778,2.3844998
82086.054127,0.025469812,-0.0117645385,1.5991701,0.012369368,-0.0057756505,0.39665782,0.031132126,-0.013425216,1.5731792
82086.072756,0.02576539,-0.01245403,1.5993456,0.016223408,-0.0010368371,0.39757416,0.040757876,-0.023643935,2.374386
82086.09225,0.029321639,-0.016738178,1.9987297,0.013438382,-0.0023603784,0.3992366,0.038611423,-0.02109748,1.9660636
82086.110015,0.029665627,-0.016470658,1.997785,0.017023774,-0.003363713,0.39377102,0.04368152,-0.0286988,2.36962
82086.128781,0.029093243,-0.016748613,1.9974662,0.011894468,-0.0023630077,0.40057948,0.039450664,-0.03765244,2.782753
82086.149223,0.029093243,-0.016748613,1.9974662,0.019774646,-0.010986733,0.8022596,0.04447336,-0.04287075,2.7926502
82086.169567,0.029385626,-0.016295666,1.99744,0.019774646,-0.010986733,0.8022596,0.045545,-0.046880145,2.793956
82086.189978,0.029598972,-0.017353317,1.9984304,0.019367402,-0.013042331,0.8067921,0.045965582,-0.051827163,2.7967575
82086.209346,0.029645113,-0.017841851,1.9980336,0.01868888,-0.011614349,0.80125886,0.045155752,-0.052099843,2.7971296
82086.227992,0.028836837,-0.017137425,1.9972042,0.015242085,-0.011359822,0.806283,0.035554174,-0.058261544,2.422072
82086.246626,0.025063373,-0.013292407,1.59557,0.011642572,-0.0028037531,0.39197254,0.03648028,-0.06919001,2.8161104
82086.265894,0.02899199,-0.018615218,1.9958354,0.011249449,0.005481037,0.39728543,0.025250217,-0.05815789,2.4200506
82086.283842,0.02895079,-0.018135145,1.995933,0.007771782,0.0076525672,0.3947208,0.02350266,-0.06291337,2.018777
82086.302468,0.028754102,-0.01838465,1.9966316,0.011096734,0.0020174899,0.39867663,0.028023617,-0.06464516,2.8209019
82086.321117,0.02863887,-0.018292975,1.9970809,0.014289002,0.001203003,0.39903295,0.023145525,-0.05865158,2.423116
82086.339716,0.025936848,-0.014102392,1.5966612,0.017074026,-0.0023965097,0.8048075,0.030548511,-0.061337855,2.8331807
82086.358349,0.026569052,-0.015820378,1.5961756,0.016140979,-0.000377696,0.7971335,0.027163995,-0.054951113,2.8355398
82086.376976,0.025240188,-0.015326765,1.5964112,0.015190524,0.0004729225,0.3976585,0.0318368,-0.043307725,2.4272249
82086.395607,0.026141694,-0.015997378,1.5959392,0.012558214,-0.004687255,0.40096936,0.02825743,-0.042577177,2.4358404
82086.414467,0.029935578,-0.0212688,1.9959993,0.012490559,0.0048186127,0.39540192,0.015242077,-0.015765138,1.6255593
82086.434823,0.029935578,-0.0212688,1.9959993,0.008840142,-0.003143341,0.39237913,0.0054764654,-0.014493658,1.6228505
82086.45535,0.029528415,-0.020688767,1.9955317,0.008840142,-0.003143341,0.39237913,0.0051201275,-0.01074143,1.6233765
82086.475581,0.029345438,-0.020059504,1.9953961,0.010420841,-0.000985932,0.39918768,0.0054118223,-0.009374759,2.0320818
82086.494933,0.029688805,-0.019944469,1.9957744,0.0075507555,0.0010864177,0.39494374,0.0029690617,-0.002935394,2.0356143
82086.513559,0.02868292,-0.020277744,1.9959332,0.011523358,-0.0039919824,0.39166644,0.007485529,-0.012388545,2.0309346
82086.532224,0.025493288,-0.015649041,1.5955607,0.013511299,0.00047555272,0.3923141,0.020020885,-0.0168255,2.4303133
82086.551058,0.02879627,-0.02016962,1.9963425,0.0077034715,0.0010864177,0.39202282,0.013149415,-0.005788887,2.0217612
82086.570321,0.025657227,-0.016294949,1.5962257,0.012914556,-0.0012746133,0.39345077,0.017863568,-0.009575894,2.4188817
82086.588939,0.031688582,-0.016542388,1.9970156,0.014342538,0.0021212774,0.39334896,0.016247546,-0.0014698304,2.0040834
82086.606668,0.025055856,-0.016275851,1.5962297,0.012354595,0.00242671,0.39256862,0.018684158,0.00084922835,2.0028293
82086.625319,0.025000865,-0.015566755,1.5963584,0.012812744,-0.0043818224,0.39202282,0.014584909,-0.0048738373,1.9990662
82086.643945,0.024806358,-0.015110678,1.5961002,0.0126600275,-0.0027702518,0.39051306,0.015028469,-0.003136655,1.9804744
82086.662577,0.024511276,-0.015155355,1.5962766,0.010319031,0.00061151787,0.39397657,0.019919964,-0.016041113,2.7822552
82086.681202,0.024806395,-0.016080635,1.5968727,0.00967138,-0.0030247793,0.39540458,0.021221757,-0.015133037,2.7902584
82086.700011,0.025520781,-0.015549104,1.5971874,0.008365243,-0.00030741002,0.39171734,0.016395723,-0.011478171,2.3780262
82086.720411,0.025520781,-0.015549104,1.5971874,0.014868342,-0.0036865498,0.39095378,0.022800729,-0.0148245925,1.9757746
82086.740934,0.022138365,-0.010791716,1.1972553,0.014868342,-0.0036865498,0.39095378,0.023428345,-0.014126039,1.9765748
82086.76121,0.027267871,-0.016146759,1.6025306,0.012507312,-0.0020716963,0.3921614,0.022351757,-0.018947877,1.984303
82086.78052,0.027196376,-0.015736682,1.6025988,0.013270892,-0.002020791,0.39998806,0.01654466,-0.017553682,1.5857233
82086.799149,0.022054153,-0.009096026,1.1954187,0.011286234,-0.0013081148,0.39691433,0.024705192,-0.03134423,1.9992002
82086.817919,0.021014152,-0.009075583,1.1955609,0.012914554,-0.0023797594,0.39387476,0.020196902,-0.031142103,1.600638
82086.836687,0.02110087,-0.009578121,1.1956495,0.015394799,9.983374e-05,0.39046216,0.018559543,-0.033978954,1.5978886
82086.855035,0.020116024,-0.01751027,1.5966231,0.014984925,-0.0038386127,0.39769468,0.016589826,-0.042282462,1.60399
82086.873671,0.019740004,-0.016368043,1.5966121,0.009349848,-0.0020234212,0.39372206,0.008882065,-0.047320407,2.0077033
82086.89228,0.021723604,-0.008034245,1.1956824,0.010655985,0.0016269967,0.3907334,-0.0057231686,-0.033488106,1.2119823
82086.91091,0.021436095,-0.008566457,1.196117,0.011928623,0.0014066236,0.39706704,-0.0104365,-0.033365343,0.81401664
82086.92955,0.021832721,-0.008066277,1.1950817,0.015884472,-0.0010562179,0.39175415,-0.011476445,-0.02644763,0.4091573
82086.948156,0.021201229,-0.008277204,1.1945715,0.0118777165,0.0011011915,0.39816955,-0.010749802,-0.03002674,0.8216278
82086.966786,0.021389714,-0.0087549025,1.1945833,0.017855013,0.008195123,0.3898171,-0.004320847,-0.018361216,1.2186097
82086.98567,0.021291122,-0.00885795,1.1949462,0.011572286,-0.00032416047,0.39562497,-0.008197859,-0.021402651,1.6250701
82087.006113,0.021291122,-0.00885795,1.1949462,0.011572286,-0.00032416047,0.39562497,-0.0133966915,-0.014919733,1.2167486
82087.025135,0.021002995,-0.009083617,1.1944795,0.014968175,0.00091432064,0.39069927,-0.009713407,-0.018500196,1.6149439
82087.043797,0.021178156,-0.0085795745,1.1947159,0.018296411,0.0021386815,0.39338246,-0.008717825,-0.008371931,1.2075907
82087.062376,0.02027691,-0.009265862,1.1940184,0.018500032,0.0038520622,0.3899866,-0.007976927,-0.0016596237,1.2043041
82087.075266,0.019878061,-0.00891862,1.1948725,0.016512088,-0.0049585323,0.39185596,-0.0040731607,-0.014336561,1.6065531
82087.092182,0.021324048,-0.011192207,1.19358,0.015053235,-0.00046012612,0.39562497,-0.0037020955,-0.009261098,1.6042604
82087.110814,0.020964295,-0.012112412,1.193762,0.011114788,-0.0013931748,0.3877983,-0.0044163107,-0.0040884833,1.5945934
82087.128531,0.020964295,-0.012112412,1.193762,0.015169167,0.0022739943,0.38684523,0.0022138183,-0.005719879,1.9928731
82087.148914,0.021117365,-0.011853043,1.1933402,0.016953487,-0.008066394,0.39260212,0.005406087,-0.010611408,1.9897825
82087.169332,0.020435238,-0.013072605,1.1934818,0.016953487,-0.008066394,0.39260212,0.011695016,-0.01401893,2.3894591
82087.18903,0.019718802,-0.012834166,1.1938697,0.018463247,0.0030710774,0.38988474,0.0126474425,-0.014294624,2.3889363
82087.207696,0.01923859,-0.012638318,1.1935134,0.017903285,-0.0012063034,0.39472535,0.016912134,-0.0101391,1.9818611
82087.226297,0.019396564,-0.012286201,1.1935186,0.015986284,-0.00042597143,0.39598063,0.0074884607,-0.020526353,1.5924473
82087.24369,0.025047997,-0.017742857,1.593146,0.015935378,0.002817203,0.3907695,0.0148951365,-0.014425811,1.588368
82087.262311,0.025073387,-0.017329143,1.5931822,0.017139705,9.9833436e-05,0.39049828,0.017126093,-0.01578584,1.5922667
82087.280932,0.021019123,-0.013111855,1.1939052,0.01868625,-0.005402561,0.3909055,0.026332842,-0.033462156,1.9911271
82087.299567,0.02395766,-0.018008007,1.5944309,0.014950772,0.0006765444,0.39581117,0.027334085,-0.034905702,2.0026333
82087.318188,0.024778433,-0.018284151,1.5944177,0.015324513,-0.0025157249,0.39912263,0.02183535,-0.024613062,1.6102842
82087.336866,0.024884457,-0.017842561,1.5942231,0.01763464,0.0027321428,0.3877615,0.024467712,-0.022059152,1.6030313
82087.355454,0.02094462,-0.013206686,1.1938925,0.01557904,0.002172183,0.38964763,0.032418665,-0.013587528,1.2075335
82087.37408,0.021705948,-0.01288705,1.1935602,0.017122954,0.001799094,0.39939392,0.03810152,-0.016751757,1.62684
82087.393826,0.025165899,-0.017082525,1.5950786,0.01990798,0.00086604524,0.3921614,0.04154255,0.0027567504,1.2226809
82087.414224,0.025165899,-0.017082525,1.5950786,0.018754559,0.0005606127,0.39567587,0.037864853,0.0045944783,0.8269027
82087.434557,0.02961278,-0.021321489,1.9959472,0.018754559,0.0005606127,0.39567587,0.033079956,0.0060978197,0.82553905
82087.454776,0.02957905,-0.021462686,1.9962214,0.0137779685,-0.00013794254,0.39504823,0.03258476,0.005189969,0.82505447
82087.474283,0.02975998,-0.021461649,1.9960366,0.01591863,-0.00078230974,0.39029202,0.03356225,-0.00032335924,1.2157773
82087.492018,0.025941906,-0.01609638,1.5954696,0.011386068,0.0016805325,0.3932639,0.022512764,-0.002637081,1.2147433
82087.510644,0.025505526,-0.017258154,1.5951792,0.015120891,-0.0057730204,0.38978294,0.019615725,-0.008451082,1.213015
82087.529283,0.025098046,-0.018200023,1.5952576,0.0150190815,0.0010864177,0.3880696,0.0070262994,0.00942007,0.8093524
82087.547899,0.024783181,-0.017102458,1.5955433,0.0123526165,0.002528521,0.38907027,0.00040763864,0.009716004,0.79818845
82087.56656,0.025162518,-0.016326493,1.5954944,0.014595087,0.002324899,0.38987064,-0.0009608443,0.014110518,0.79035664
82087.584986,0.025093315,-0.015471115,1.5952314,0.01972111,0.0019518101,0.39007425,0.000814513,0.011452173,0.79390365
82087.600064,0.024296628,-0.015171311,1.5955302,0.014136937,-0.002564,0.39188945,-0.0013587462,0.006949622,0.7983102
82087.618692,0.024572512,-0.014896207,1.5953921,0.012301712,-0.0018513236,0.39357197,-0.0074799373,0.0003850994,0.7887893
82087.638738,0.024572512,-0.014896207,1.5953921,0.0166139,-0.008015489,0.39352107,-0.013902008,-0.017455304,0.79565024
82087.6592,0.02828244,-0.018328942,1.9959102,0.017275672,-0.0032934267,0.39083788,-0.015478154,-0.021512127,0.7919652
82087.679411,0.032101456,-0.021714278,2.396608,0.017275672,-0.0032934267,0.39083788,-0.011335835,-0.0272714,0.7886383
82087.699389,0.032025516,-0.021360839,2.396582,0.018259624,-0.0069779996,0.390736,-0.005997892,-0.035852198,1.1887027
82087.71802,0.03644551,-0.02510492,2.7973251,0.02637758,-0.014688708,0.7927725,0.005119197,-0.041881356,0.79498655
82087.735646,0.040213406,-0.028742319,3.197025,0.019823575,-0.011547346,0.78966784,0.009545212,-0.046064917,0.3921188
82087.754053,0.04103891,-0.029944146,3.196289,0.017547602,-0.010984756,0.3914822,0.010832484,-0.058396727,0.7962617
82087.772642,0.037819,-0.02587801,2.7960503,0.017191263,-0.0066049113,0.39586207,0.013407946,-0.071332686,1.2096868
82087.792167,0.041877355,-0.030000605,3.197666,0.017428387,-0.00273412,0.39170256,0.012594146,-0.06930221,0.8110876
82087.809901,0.037301596,-0.025643334,2.7956874,0.019280365,-0.0008312378,0.39036226,0.017210342,-0.06935742,0.81385547
82087.828541,0.038205564,-0.025883578,2.7956216,0.015867723,-0.005261988,0.38526714,0.011907454,-0.07069477,0.81051654
82087.847154,0.03846818,-0.0258381,2.7954464,0.009519969,-0.008182979,0.38700056,0.003458799,-0.07958769,1.2036823
82087.865791,0.038959295,-0.02738247,2.7955754,0.014696899,-0.005109272,0.38978562,0.0028278783,-0.07289577,0.79835147
82087.884406,0.035371635,-0.023630334,2.3947413,0.016003035,-0.004532561,0.38861212,0.0019217007,-0.05691007,0.7930234
82087.903797,0.033530008,-0.02293861,2.3951733,0.016732462,-0.008301541,0.39226255,0.012458076,-0.06880436,1.5979381
82087.924251,0.033530008,-0.02293861,2.3951733,0.013727065,-0.004718779,0.39357197,0.008129137,-0.06634151,1.600927
82087.944593,0.033736423,-0.02311649,2.395477,0.013727065,-0.004718779,0.39357197,-0.0030563872,-0.058462273,1.603838
82087.965037,0.03851423,-0.029677575,2.7964404,0.012559523,-0.018573621,0.78394175,-0.014731902,-0.05553268,1.5958524
82087.983736,0.038882736,-0.029228589,2.7967129,0.007077161,-0.022071322,0.77570534,-0.020065516,-0.058523584,1.5888628
82088.002373,0.04247484,-0.030561468,3.2007332,0.01557904,-0.0013570432,0.39625254,-0.025519302,-0.041791707,1.1872225
82088.020988,0.037779946,-0.034466673,3.196853,0.010147585,-0.012972698,0.792603,-0.03284536,-0.039967433,1.1783737
82088.039876,0.039571,-0.029479558,2.7958422,0.013387478,-0.0069444976,0.39443734,-0.030877834,-0.044755876,1.5822357
82088.058246,0.045279276,-0.03805113,3.200483,0.012403523,-0.0065004695,0.3898171,-0.041724842,-0.038481575,1.1754357
82088.076869,0.044318274,-0.03729849,3.2012436,0.017329209,-0.0076906756,0.39706704,-0.03674761,-0.040195554,1.1841947
82088.095491,0.0386995,-0.02866479,2.797531,0.016053943,-0.007961954,0.39438382,-0.025878139,-0.033552457,0.79197216
82088.114127,0.03472676,-0.025058398,2.3963687,0.012674802,-0.0070798104,0.3876771,-0.021826185,-0.044279758,1.1798881
82088.13275,0.0313274,-0.021802058,1.9957151,0.014984925,-0.010645169,0.392925,-0.020565938,-0.05191801,1.1807312
82088.151383,0.031045044,-0.0222911,1.9954185,0.013169733,0.0007468308,0.39752516,-0.024477936,-0.03635509,1.1858172
82088.169996,0.027032323,-0.018827012,1.5948328,0.017769953,-0.009610308,0.7886445,-0.01945962,-0.030337304,1.1766999
82088.189465,0.02255713,-0.015564379,1.194779,0.018923374,-0.014566864,0.78859353,-0.013499773,-0.034521192,1.5738536
82088.209898,0.02255713,-0.015564379,1.194779,0.010469116,0.0043772147,0.39541867,-0.009343586,-0.02068639,1.5834303
82088.230305,0.02225625,-0.0148869185,1.1942824,0.010469116,0.0043772147,0.39541867,-0.004072798,-0.01481936,2.000746
82088.250726,0.02163613,-0.014105524,1.194744,0.010096027,-0.005654458,0.40175232,-0.0020059075,-0.007432934,1.6007859
82088.270064,0.021241441,-0.013164074,1.1949705,0.010503271,-0.0046195984,0.39418018,0.0016329769,-0.00765816,1.6024227
82088.287953,0.024129247,-0.019973911,1.5949888,0.015598423,-0.004297415,0.39659214,0.0043678945,-0.0013684531,1.2031331
82088.30676,0.024102418,-0.019833721,1.5951179,0.009383352,-0.004144699,0.3959645,0.010080501,-0.010739249,1.6110843
82088.32528,0.023730457,-0.018872187,1.5947924,0.014238097,-0.00035568513,0.39277223,0.009054031,-0.005409202,1.606504
82088.343843,0.019827195,-0.013021245,1.1946889,0.012151626,-0.0040061027,0.3874735,0.011123498,-0.008321057,1.9919109
82088.362458,0.019597765,-0.012631342,1.194651,0.0143766925,-0.002750871,0.3931286,0.013125333,0.0036591599,1.6033845
82088.381299,0.019611882,-0.012226355,1.1944665,0.015309741,-0.0023268766,0.39156464,0.015725767,0.012069351,1.601677
82088.399713,0.019398764,-0.012359776,1.1940786,0.009960062,-0.0026832148,0.39630345,0.010868437,0.011090319,1.1976349
82088.418344,0.01844717,-0.012961785,1.1977662,0.011388044,-0.0072492776,0.39017344,0.0107893795,-0.0012513889,1.1972785
82088.436966,0.015673477,-0.005372695,0.79424196,0.011337139,-0.0040428876,0.39557406,0.009846706,-0.0007174953,1.2027664
82088.455592,0.01673978,-0.004974892,0.7945297,0.01145307,-0.0063838847,0.38708296,0.010403648,-0.024055818,1.1879945
82088.475089,0.01652988,-0.0055891895,0.795002,0.015649326,-0.005620303,0.39593038,0.015968358,-0.026529223,1.1838063
82088.495504,0.01652988,-0.0055891895,0.795002,0.013932663,-0.0015632951,0.39392567,0.021128537,-0.021894848,1.1833991
82088.515914,0.015525903,-0.0061273538,0.79441404,0.013932663,-0.0015632951,0.39392567,0.020267095,-0.025403997,1.1767057
82088.535062,0.01591534,-0.0057016537,0.7946004,0.012931958,-0.006624291,0.39058068,0.020047069,-0.02573741,1.176279
82088.553689,0.015992803,-0.0060959687,0.79483175,0.01191122,-0.0014614844,0.394641,0.022860823,-0.026248999,1.5788409
82088.572316,0.01599789,-0.0072816866,0.79573554,0.013373357,-0.0010683613,0.39294174,0.01895307,-0.026089594,1.5784229
82088.590933,0.01656227,-0.007809302,0.79553765,0.01858444,-0.0020723494,0.39509913,0.01996065,-0.01796847,1.1937913
82088.609601,0.016430376,-0.008098072,0.79596263,0.01277661,-0.00273412,0.39190686,0.014655623,-0.01687347,1.1939406
82088.628189,0.016589396,-0.007963273,0.7958228,0.011487224,-0.004362441,0.39088878,0.007899556,-0.019342279,1.195508
82088.646807,0.016373156,-0.0065730046,0.79653454,0.016684188,-0.0071474668,0.39177093,0.019774424,-0.035710737,1.5909147
82088.665438,0.019724373,-0.011896017,1.1967548,0.010418211,-0.0012578623,0.3879001,0.010735605,-0.015929548,0.7914842
82088.684065,0.020481072,-0.013526875,1.1970131,0.017837608,-0.003460264,0.7907168,0.014195688,-0.011639561,0.7896988
82088.702694,0.020120315,-0.0148184,1.196547,0.011147638,-0.0073819607,1.1871322,0.01032642,0.003420972,0.39833042
82088.72006,0.018967433,-0.014558122,1.1960686,0.010061872,-0.006621661,0.7905615,0.0046794848,0.009235106,0.39303756
82088.740367,0.018967433,-0.014558122,1.1960686,0.013271545,-0.005399931,0.39171734,0.0041517364,-0.0007464451,0.7972793
82088.760746,0.016978756,-0.00780152,0.7964819,0.016005665,-0.005145404,0.8058811,0.004134985,0.0049595702,0.80617756
82088.781172,0.015818432,-0.007324638,0.7950426,0.016005665,-0.005145404,0.8058811,0.0038984828,0.0032625336,0.80328417
82088.800791,0.017297948,-0.0073705446,0.7955392,0.013082043,-0.00078231003,0.3922123,0.0015988123,0.0058682095,0.40088823
82088.818173,0.017241852,-0.008997735,0.7946425,0.014086033,-0.00057868817,0.39520094,0.0045372504,-0.0018999288,0.8075638
82088.836785,0.016984925,-0.008939299,0.79457206,0.016206658,0.002155432,0.39195776,0.001250688,-0.00094859145,0.8045511
82088.855428,0.015000384,-0.0071082246,0.79465437,0.011826813,0.0064643375,0.3925345,0.0009051673,0.004583712,1.205973
82088.874023,0.01634045,-0.013935332,1.1950532,0.012607145,-0.004398573,0.3923818,0.0015159749,0.00052639813,1.2069582
82088.891429,0.016249763,-0.013930517,1.1953715,0.012759862,-0.00093502615,0.39027524,-0.009698833,0.012675927,0.8048721
82088.910053,0.016500764,-0.013970953,1.1954671,0.013472536,-0.0039069224,0.39329806,-0.0059606466,0.0018031296,1.2097713
82088.927436,0.014255133,-0.0071370676,0.7961342,0.011335161,-0.0021226017,0.38983452,-0.013835557,-0.0024450577,1.2038517
82088.946065,0.014577179,-0.0074921045,0.7960436,0.016155751,-0.0019022292,0.3978139,-0.009389702,-0.005729483,1.2095938
82088.964797,0.015125507,-0.007855338,0.7950066,0.015731758,-0.0016477024,0.39423108,-0.0030455433,-0.011766252,1.6141108
82088.985156,0.015125507,-0.007855338,0.7950066,0.013896532,0.00066242367,0.39176825,-0.0051007676,-0.0028976146,1.208422
82089.005591,0.0148377195,-0.007856935,0.795005,0.015697604,-0.0032284006,0.39387476,-0.0042018755,-0.0052586463,1.2021558
82089.025982,0.014976853,-0.007596584,0.795407,0.015697604,-0.0032284006,0.39387476,-0.0023563083,-0.0067851394,1.2025552
82089.0454,0.013917718,-0.006941045,0.79524916,0.0138315065,-0.0017662641,0.39353585,-0.0012668226,-0.00721464,1.2031511
82089.064041,0.01349575,-0.00721469,0.7945886,0.016121598,0.00015073891,0.39669132,0.00020265517,-0.001733634,0.79961854
82089.082687,0.01387766,-0.0072923154,0.79428655,0.019382177,-0.00416145,0.392566,0.0032274872,-0.0069486066,0.7983742
82089.101279,0.014313713,-0.007732172,0.7943845,0.0186695,0.0005606127,0.39591098,0.009314743,-0.013602178,0.39874527
82089.119903,0.014889523,-0.008389163,0.7936532,0.014968176,0.0049371747,0.39105627,0.012024179,-0.0027495427,0.39549318
82089.138527,0.011555289,-0.0031014953,0.3934588,0.015816165,0.0012049797,0.3905981,0.015666755,0.0018523537,0.39400828
82089.157152,0.012183707,-0.0017034888,0.3934112,0.012623898,-0.0023912499,0.79418105,0.015519272,0.0044932817,0.7877075
82089.175789,0.01206217,-0.0019708066,0.3939182,0.013556946,-0.0029512097,0.80036193,0.018269278,0.0065582073,0.7956762
82089.19441,0.01277979,-0.0021862278,0.3930329,0.017685546,-0.002123255,0.3932304,0.020779708,0.0072082505,0.7929457
82089.213052,0.01391215,-0.003062035,0.39273334,0.014764554,-0.0003730889,0.39477432,0.01679646,0.014873966,0.39110872
82089.231669,0.013615399,-0.0033755954,0.3927554,0.0116399415,-0.0043798448,0.39484194,0.015607211,0.0139707625,0.3935945
82089.252299,0.013615399,-0.0033755954,0.3927554,0.011334508,-0.00989636,0.39623317,0.0115100145,0.010270721,0.39464676
82089.270879,0.014301445,-0.0031149203,0.39351913,0.0139668165,-0.006331003,0.39805165,0.012170803,0.0108527085,0.398842
82089.291212,0.014408085,-0.00306012,0.39380118,0.0139668165,-0.006331003,0.39805165,0.0074178665,0.008782989,0.39899477
82089.312778,0.014656857,-0.0034570873,0.39269146,0.011215947,-0.004311536,0.39816758,0.0008706643,0.009236404,0.40245166
82089.331005,0.015187855,-0.004238697,0.39262083,0.012165745,-0.0037348252,0.3964033,0.0023064476,0.0031780216,0.8029265
82089.349625,0.014281618,-0.0037580198,0.39249477,0.013441011,-0.0013596732,0.39572477,0.002760269,-0.0018697703,1.2012842
82089.368246,0.01448444,-0.004443098,0.39281926,0.008840795,-0.0018178221,0.39816758,-0.003184668,-0.011418746,1.6073593
82089.387701,0.014299221,-0.005791504,0.39293528,0.016341971,-0.012361832,0.7956231,-0.007966795,-0.023771808,2.0087118
82089.405494,0.01496277,-0.005413013,0.3919562,0.020670911,-0.0058413283,0.7935025,0.0001518596,-0.021166103,2.0086906
82089.424118,0.0140745975,-0.0046719187,0.3929375,0.020942189,-0.0107837645,0.7993104,0.008510691,-0.03148925,2.4097424
82089.442745,0.013132498,-0.0038987547,0.39335886,0.016209288,-0.005434086,0.39273548,0.008412511,-0.035174675,2.408107
82089.461373,0.013990772,-0.0031937163,0.39316,0.008467707,0.00079773605,0.3931427,0.0016471999,-0.036536004,2.8045368
82089.480541,0.013598555,-0.0045686257,0.39227614,0.011334509,-0.00594314,0.3930409,0.0026138418,-0.047838148,3.2001247
82089.495227,0.013598555,-0.0045686257,0.39227614,0.01868625,-0.005823925,0.39416084,0.006478296,-0.043217536,2.7963154
82089.51622,0.017330585,-0.009313597,0.79138684,0.01868625,-0.005823925,0.39416084,0.0056812116,-0.04702067,2.7994878
82089.536112,0.016666567,-0.00867878,0.7915141,0.012762492,-0.004738161,0.4013766,0.0061275233,-0.04403688,2.8003318
82089.55575,0.01606326,-0.0084718205,0.79225653,0.010655988,-0.0013087677,0.39905235,0.007340851,-0.046375796,3.203498
82089.574407,0.024943696,-0.017061478,1.5994629,0.010825454,0.0043772147,0.3975935,0.0023312792,-0.029534698,2.4051263
82089.592991,0.024970748,-0.016939998,1.5997934,0.015852949,-0.00020296902,0.3999854,0.0065438016,-0.026483731,2.415918
82089.612503,0.021374784,-0.017397234,1.5932431,0.014987557,-0.0009182757,0.40224466,0.012208198,-0.019538578,1.6202272
82089.630254,0.021272069,-0.017771395,1.5936953,0.012117472,0.001035512,0.39112127,0.015288829,-0.008910424,1.2177795
82089.64889,0.021179652,-0.017253619,1.5949465,0.010980801,0.00052645756,0.39071405,0.012319525,-0.009001705,1.2126886
82089.668392,0.021789499,-0.017469283,1.5948473,0.011961472,0.00028933398,0.7988804,0.0036224432,0.0026475403,0.80922097
82089.686848,0.022231007,-0.018167017,1.5945768,0.0112353265,0.0028848585,0.39776036,-0.00026321225,0.009620269,0.811951
82089.704748,0.022206968,-0.017790198,1.5949707,0.011557511,-0.0032284008,0.39594516,0.006765122,0.005152847,0.41342893
82089.723385,0.022646615,-0.01786639,1.5957104,0.012337844,-0.006587507,0.39599606,0.008059221,0.0107819885,0.014963269
82089.742005,0.022524187,-0.017953398,1.5955162,0.008670675,-0.002513095,0.3949612,0.0041735265,0.006132213,0.8145798
82089.760639,0.022069892,-0.01831163,1.5960168,0.00853471,0.0015104119,0.39523247,0.002872429,0.012630911,1.2080523
82089.780912,0.022069892,-0.01831163,1.5960168,0.008195123,0.0038514093,0.3975935,0.005660646,0.021860098,1.2044693
82089.801299,0.022096701,-0.018528314,1.5961071,0.009402732,-0.0021567568,0.3976953,0.010011482,0.010761164,1.6038898
82089.821666,0.021908866,-0.018499916,1.596471,0.009402732,-0.0021567568,0.3976953,0.00703289,0.0073630395,1.6058174
82089.837604,0.024840733,-0.02197014,1.9968624,0.008740962,-0.00142733,0.4013766,0.0036353266,0.00501152,1.6058989
82089.856242,0.028400982,-0.024977095,2.3971386,0.007940596,-0.0012237082,0.39939198,0.0015157713,-8.5773565e-05,2.0033681
82089.874862,0.031213285,-0.028806,2.7985275,0.008995489,-0.00054518663,0.39326194,-0.0017636815,0.0023165422,2.005285
82089.893742,0.030814989,-0.028091192,2.7990954,0.00685483,0.0043095583,0.7994404,-0.006611739,0.0050628292,2.0179746
82089.912367,0.031061217,-0.028629458,2.799241,0.007669318,-0.0025640007,0.39815345,-0.0070526395,0.0016828052,2.0188587
82089.930978,0.030694991,-0.028050357,2.7999926,0.011540107,-0.00025387434,0.39390627,0.0012561129,-0.0036325417,2.4128592
82089.949375,0.030142576,-0.027480295,2.7995987,0.008229278,-0.0012578625,0.39538518,0.0011640842,-0.004628606,2.8136928
82089.967992,0.029965967,-0.026857203,2.8008082,0.012507312,-0.007300183,0.39455393,0.0053848126,-0.010633581,2.811515
82089.98663,0.032895185,-0.02974233,3.2013786,0.0114047965,-0.0013228884,0.3933805,0.009639063,-0.0035069005,2.406513
82090.00526,0.032988865,-0.030059552,3.2008393,0.0045312378,0.00018687065,0.3932787,0.0046884264,-0.0028831416,2.0041494
82090.025706,0.032988865,-0.030059552,3.2008393,0.009875002,-0.0064689456,0.39405903,0.0051195235,-0.022313586,1.9953661
82090.04613,0.030987902,-0.025601855,2.8012025,0.009875002,-0.0064689456,0.39405903,0.0057923584,-0.012164568,1.5980617
82090.066567,0.03294925,-0.028666377,3.2021303,0.014223975,0.0037154441,0.4014784,0.012215652,-0.010687142,1.590785
82090.08595,0.03253394,-0.02744271,3.202111,0.012914556,-0.0066893175,0.39168122,0.014973626,-0.0157911,1.5805349
82090.104583,0.03257161,-0.027168699,3.2026756,0.01342361,-0.003955198,0.39547026,0.01961174,-0.017265685,1.5738844
82090.123196,0.033037797,-0.026483102,3.2019634,0.010384057,-0.0059940456,0.3989847,0.023064082,-0.033045273,1.9831743
82090.141952,0.032413013,-0.025880322,3.2015793,0.0065842043,-0.0034970485,0.3927187,0.018554857,-0.045906216,1.9764662
82090.160473,0.0347058,-0.028934209,3.6020062,0.012999614,-0.0024454384,0.39219293,0.023964494,-0.046053026,1.9674726
82090.179088,0.03515498,-0.029308202,3.6015892,0.009654629,-0.0037006706,0.39523247,0.016131295,-0.05208294,1.9721035
82090.197706,0.03639978,-0.033058334,4.000719,0.009027013,-0.0030730546,0.40574232,0.0115109645,-0.050274927,1.5931851
82090.216348,0.038871884,-0.03666344,4.4011993,0.009400101,-0.0046537532,0.80209273,0.0011158617,-0.034549665,1.2003137
82090.234988,0.03907412,-0.035748854,4.4015346,0.015256204,-0.0063162292,0.39460483,0.0016906072,-0.040222235,1.2059286
82090.253567,0.038873557,-0.035298053,4.4014077,0.021895269,-0.0010542407,0.39704764,0.027652754,-0.04602549,1.6121458
82090.272217,0.039029423,-0.035847228,4.4019403,0.01858707,-0.0024428081,0.39908388,0.041810542,-0.034268793,1.6189054
82090.291048,0.03886753,-0.036462504,4.4016576,0.013644635,-0.0029009571,0.3955694,0.03664424,-0.04157928,1.6037949
82090.311408,0.03886753,-0.036462504,4.4016576,0.009943311,-0.0047020284,0.40236118,0.026076479,-0.026820488,1.2183775
82090.331919,0.03834719,-0.0373287,4.4014335,0.009943311,-0.0047020284,0.40236118,0.019033454,-0.030965835,1.2166947
82090.353224,0.035348814,-0.03364225,4.001104,0.008213179,-0.009067752,0.3951622,0.019871125,-0.03726806,1.6122674
82090.371557,0.035439316,-0.03422446,3.99976,0.014475872,-0.0033784872,0.398049,0.021779751,-0.033794682,1.6097456
82090.390169,0.03845254,-0.03837426,4.4005957,0.020554977,0.0025111174,0.40164852,0.043594662,-0.014895317,1.2214395
82090.408789,0.041781664,-0.043149788,4.8008723,0.01474715,-0.0028185274,0.39850715,0.044008765,-0.014533907,1.2288073
82090.427418,0.045666184,-0.04826056,5.2020187,0.014834841,0.0015104121,0.39798138,0.043207552,0.0012944018,0.42870012
82090.446047,0.04315817,-0.044498786,4.801389,0.012270187,-0.004551942,0.40156412,0.047862608,0.0010390052,0.40990373
82090.464699,0.040974174,-0.04082058,4.4006705,0.01398357,-0.00015206356,0.3993049,0.05419371,-0.001854489,0.8064541
82090.483309,0.039826065,-0.040739927,4.401178,0.0116425725,-0.0050268425,0.40371892,0.050787523,-0.0014056824,0.80969685
82090.502607,0.040285904,-0.04072946,4.402207,0.013152331,-0.0031748656,0.40293857,0.03013198,0.00038563213,0.40713477
82090.520556,0.03770097,-0.037689473,4.0013347,0.012694183,-0.0059431405,0.39894593,0.019539975,-0.008669273,0.4008107
82090.539189,0.03520701,-0.03452011,3.6008909,0.012134221,-0.0068252836,0.39872554,0.022475308,-0.023959419,0.80035084
82090.557793,0.039515346,-0.03910004,4.00146,0.0060242456,-0.0050751176,0.4035662,0.015625477,-0.029896991,1.2012062
82090.576633,0.0461818,-0.051612113,4.795345,0.007703472,-0.00424388,0.4025313,0.014361684,-0.010260959,0.4072418
82090.597053,0.0461818,-0.051612113,4.795345,0.009911788,-0.0077924863,0.39315817,0.0067426953,-0.00787427,-0.0022284985
82090.617491,0.046262417,-0.052823078,4.795439,0.011726979,-0.0060423207,0.39905038,0.003523866,-0.018783346,0.39429975
82090.637871,0.04059432,-0.041388478,4.001903,0.011726979,-0.0060423207,0.39905038,-0.003259005,-0.031657793,0.7909894
82090.657142,0.04108047,-0.041246425,4.0017085,0.01087899,-0.008233885,0.39906713,-0.0062299557,-0.033665802,0.79080755
82090.675774,0.04094987,-0.043354366,4.002671,0.011591666,-0.0068935924,0.39891437,-0.0062994403,-0.043196578,1.1910038
82090.693146,0.035766985,-0.03287444,3.2017756,0.009179729,-0.0038198854,0.40268338,-0.00929466,-0.04406399,1.5980153
82090.710541,0.040038627,-0.039247524,3.6023467,0.014325786,-0.0056377077,0.39752325,-0.011579674,-0.042648822,1.1970348
82090.729169,0.04007939,-0.039327744,3.6019754,0.015360646,-0.0015265103,0.39395785,-0.007772705,-0.036072284,1.1902992
82090.747983,0.039866745,-0.03946995,3.6011963,0.014376692,-0.0019846593,0.3934488,-0.005227012,-0.032976735,1.1852865
82090.766421,0.03767325,-0.03591459,3.200456,0.01316908,-0.0051092724,0.39207172,-0.008888984,-0.022327075,0.782914
82090.785026,0.035260987,-0.03141997,2.7994556,0.009909157,-0.0032431746,0.39696327,-0.015225898,-0.012128338,0.78909326
82090.803672,0.03510388,-0.031065362,2.799801,0.0065332986,-0.0030395528,0.3982694,-0.010814637,-0.011331685,1.1875615
82090.822302,0.037529606,-0.033193827,3.1971874,0.011761134,-0.01045895,0.39891705,0.00084100355,-0.03169956,1.9923474
82090.841931,0.035059083,-0.029346764,2.7965019,0.010980801,-0.0038540394,0.3934823,0.004008384,-0.029562654,2.3957536
82090.862426,0.035059083,-0.029346764,2.7965019,0.012270187,-0.003596882,0.40054536,-0.00035164287,-0.020203186,2.0006323
82090.882767,0.031200854,-0.027470743,2.397927,0.012270187,-0.003596882,0.40054536,0.0005703953,-0.028329328,2.0007908
82090.902996,0.02802325,-0.023271559,1.9965609,0.015988262,-0.02259778,0.7950465,-0.0014670106,-0.021777786,1.6004018
82090.921641,0.028036652,-0.024407538,1.996082,0.013610479,-0.014633196,0.38808438,0.0051017175,-0.035194315,1.9883896
82090.940249,0.026733132,-0.026403083,1.996301,0.010469116,-0.006667959,0.40173557,0.007882458,-0.030000634,1.9937505
82090.958893,0.03132758,-0.029679472,2.3949876,0.016378755,-0.009930515,0.39669394,0.010476358,-0.021053424,1.9990593
82090.977527,0.02908322,-0.029234627,2.3942459,0.013678789,0.0007254717,0.39541867,0.008567884,-0.026088394,2.0057788
82090.996138,0.029132357,-0.028386207,2.3952055,-0.001974494,-0.0016624756,0.403757,-0.008882564,-0.02488081,2.019811
82091.01547,0.031639013,-0.029142113,2.3944395,0.014339906,-0.0074870535,0.39552048,-0.008488952,-0.028108753,2.0276191
82091.035809,0.031639013,-0.029142113,2.3944395,0.011283603,-0.0045151575,0.36616245,-0.008539858,-0.029431649,1.9991598
82091.056205,0.0279349,-0.026108792,1.9932522,0.011283603,-0.0045151575,0.36616245,0.00044669645,-0.029112006,1.5910583
82091.076615,0.024081359,-0.022086525,1.5922178,0.018279007,-0.0055868025,0.3874735,-0.0001955009,-0.03159553,1.5811859
82091.095449,0.023713967,-0.022010034,1.5920134,0.010859608,-0.015398103,0.78847504,-0.0023561132,-0.020987727,1.178548
82091.114071,0.02389194,-0.021895193,1.5915599,0.011317756,-0.015499915,0.7927222,-0.007395403,-0.026726335,0.7858265
82091.132729,0.023804367,-0.02283738,1.591101,0.016121596,-0.012002212,0.78908587,-0.0028858865,-0.036530647,1.1781958
82091.151374,0.023283323,-0.023282386,1.5907507,0.015137643,-0.009203065,0.78304356,-0.0026237962,-0.030504541,1.1720755
82091.169964,0.024016937,-0.022780498,1.5911909,0.014832211,-0.009813931,0.7896826,-0.007902506,-0.01581007,0.7837139
82091.188596,0.020575283,-0.017762158,1.1903075,0.018380817,-0.013786532,0.79182005,-0.00409864,-0.021603616,0.37192985
82091.20722,0.021031141,-0.017917667,1.1903137,0.015392169,-0.016351186,0.78871536,-0.004257384,-0.039084278,0.76789474
82091.227144,0.02079556,-0.01889939,1.190861,0.015049953,-0.007401994,0.7873892,-0.0052758306,-0.033774074,0.7639513
82091.247532,0.02079556,-0.01889939,1.190861,0.015049953,-0.0065707564,0.79007244,0.008457166,-0.034489382,0.75508696
82091.267963,0.020609824,-0.019114831,1.1915807,0.015049953,-0.0065707564,0.79007244,0.013309325,-0.032665286,1.1589564
82091.28794,0.01931185,-0.019195907,1.1917849,0.017631358,-0.007605616,0.79299337,0.019253356,-0.034639977,1.5640615
82091.30658,0.019301629,-0.017529223,1.1929258,0.014065999,-0.0075547104,0.79362106,0.02089502,-0.032584414,1.5975012
82091.325208,0.020121036,-0.017482592,1.1932031,0.020535598,-0.005923106,0.78832227,0.02592693,-0.024236271,1.6062859
82091.343819,0.020659482,-0.016981738,1.1936939,0.016461186,-0.009508498,0.7907174,0.032394003,-0.024195947,2.0090322
82091.362449,0.017254034,-0.011663037,0.7938501,0.012471833,-0.0011560518,0.7907174,0.03158137,-0.008115712,2.0080988
82091.38106,0.017575854,-0.010878999,0.7941238,0.01330307,0.0032411972,0.78684664,0.023534052,0.013827167,1.6077108
82091.397214,0.017839668,-0.009139923,0.7947791,0.013557598,-0.0024983212,0.7903611,0.018996667,0.017085344,1.614667
82091.415812,0.017888062,-0.009539769,0.79445904,0.013150354,-0.0017488607,0.7895975,0.014007834,0.018584704,2.0161693
82091.434462,0.014670137,-0.004039371,0.39459732,0.015542258,-0.006960597,0.7855231,0.009180832,0.023194304,2.0109065
82091.454228,0.014291347,-0.0028995282,0.39493588,0.015169169,-0.0008647397,0.38643864,0.006904481,0.024269363,2.4075172
82091.474635,0.014291347,-0.0028995282,0.39493588,0.012895826,-0.0054173353,0.7933666,0.006480489,0.028106002,2.407704
82091.494943,0.013418424,-0.0024244774,0.39439642,0.012895826,-0.0054173353,0.7933666,0.005132794,0.022677409,2.4051971
82091.515157,0.013472937,-0.0020561551,0.3936766,0.012539487,-0.013413444,0.7951308,0.0037658755,0.023422686,2.0043182
82091.533797,0.0129873855,-0.0015501216,0.39356962,0.015884474,-0.015774474,0.794656,0.0016541956,0.009587412,1.9924239
82091.552411,0.012223188,-0.0014830114,0.3930198,0.011759157,-0.00979718,0.79749185,0.0009241053,0.007915107,1.9899821
82091.571048,0.012491624,-0.0015086634,0.39268473,0.0140692815,-0.011578217,0.790751,-0.008746762,0.0042253346,1.5878658
82091.589677,0.012251792,-0.0017646517,0.39266562,0.009689436,-0.010746979,0.800226,-0.015872436,0.005305068,1.5963092
82091.608276,0.011599984,-0.0018052165,0.39339316,0.01264393,-0.013328384,0.7947068,-0.007147039,-0.015680624,1.9909991
82091.626932,0.012989797,-0.0058804746,0.79211545,0.01284755,-0.009101255,0.7964034,-0.0034113296,-0.022046618,1.5952526
82091.645563,0.013080958,-0.007028144,0.7915643,0.012132245,-0.00424651,0.8030084,0.00067416346,-0.018501768,2.007227
82091.664203,0.012523435,-0.0068584117,0.7914667,0.014340561,-0.0066893175,0.7942319,0.011326115,-0.019126004,2.0013065
82091.682808,0.014028524,-0.010506128,1.1901649,0.0140692815,-0.012242618,0.7976787,0.012574767,-0.019218048,1.6069225
82091.701435,0.01438724,-0.009580817,1.1895725,0.017312456,-0.007724177,0.7991376,0.023993416,-0.016251178,1.6146641
82091.720059,0.014822033,-0.008773226,1.1898717,0.012115496,-0.01086554,0.7991376,0.023286426,-0.024041638,1.6191244
82091.742475,0.014822033,-0.008773226,1.1898717,0.018090159,-0.008422732,0.7966438,0.028531665,-0.020679906,1.6200267
82091.760847,0.015115739,-0.008538495,1.1898394,0.018090159,-0.008422732,0.7966438,0.033440936,-0.024859114,2.0191495
82091.777163,0.015131965,-0.008768604,1.1887859,0.020349378,-0.008846727,0.796966,0.039463278,-0.01456327,2.0250092
82091.795799,0.0146731725,-0.008968737,1.18848,0.013099447,-7.028598e-05,0.79455405,0.04078034,-0.0027140777,2.4190433
82091.814418,0.01665643,-0.01337579,1.5875225,0.013201258,-0.012548051,0.80078584,0.03802155,-0.008334435,2.4328027
82091.833048,0.016776407,-0.013010063,1.5873266,0.017516078,-0.015333076,0.79593116,0.05165699,-0.020524116,2.4227657
82091.851703,0.01664527,-0.014102426,1.5873722,0.013065293,-0.011818622,0.79222983,0.046551194,-0.011354967,2.0229876
82091.870294,0.016005928,-0.015450626,1.5871235,0.015646696,-0.012276772,0.7960498,0.05457787,-0.02408061,2.8226395
82091.88894,0.018433424,-0.01938232,1.9868145,0.013627882,-0.0100175515,0.7936886,0.056358885,-0.030788377,2.4061787
82091.90755,0.020943956,-0.023202056,2.3864243,0.015836196,-0.009763025,0.79761034,0.05706637,-0.03179409,2.0150678
82091.92618,0.023851797,-0.027398273,2.7858617,0.013169733,-0.008080515,0.79672813,0.0551623,-0.026789784,2.013573
82091.946448,0.023851797,-0.027398273,2.7858617,0.015493981,-0.0006102125,0.38815463,0.050204244,-0.026293494,2.001858
82091.966835,0.024858952,-0.027897013,2.785942,0.015171797,0.00047555254,0.3954213,0.05055053,-0.017575035,1.60387
82091.987273,0.027532145,-0.03168117,3.1857822,0.015171797,0.00047555254,0.3954213,0.047630664,-0.027318716,1.6010414
82092.006897,0.02745454,-0.03143907,3.1852396,0.016019786,-0.010885574,0.3891895,0.040566947,-0.023486206,1.200778
82092.025521,0.027884448,-0.031397637,3.185856,0.014984925,0.00015336911,0.39165235,0.02804531,-0.017462388,0.79850525
82092.044131,0.02764032,-0.032158617,3.186448,0.012318462,0.0039532203,0.38949493,0.028312573,-0.022764668,0.7957425
82092.0628,0.027758436,-0.03165098,3.1867802,0.009197133,-0.004874126,0.39664304,0.024049602,-0.026495283,1.1926067
82092.081391,0.027464623,-0.031658355,3.1861973,0.01276249,-0.003649765,0.38733754,0.014733939,-0.0106779495,0.78810406
82092.10002,0.026283167,-0.027807891,2.7874148,0.013118829,-0.0067234724,0.39205956,0.016990164,-0.019732598,1.190895
82092.118632,0.029246956,-0.031498812,3.1869462,0.011181791,-0.008270017,0.39036036,0.0037563264,-0.023509419,0.78473514
82092.137269,0.03296895,-0.036087546,3.5864742,0.011792657,-0.0024963438,0.39918768,-0.003025872,-0.022334496,0.80076605
82092.155891,0.031553574,-0.031582613,3.18808,0.010706893,-0.0050268425,0.3910897,-0.013001223,-0.025237614,0.7952072
82092.174508,0.030722132,-0.0319846,3.188589,0.008586268,-0.005705364,0.3942653,-0.0155489,-0.034235086,1.1954886
82092.193143,0.030223338,-0.032497566,3.1899579,0.012677431,-0.0021058514,0.39405903,-0.020390555,-0.034170758,0.8018461
82092.211729,0.030701235,-0.033237185,3.1920292,0.011388045,0.000526458,0.3951622,-0.017469488,-0.03672368,1.19621
82092.232151,0.030701235,-0.033237185,3.1920292,0.010384058,-0.0023945328,0.39848778,-0.020635096,-0.02684103,1.1961845
82092.252638,0.030536093,-0.033720937,3.1947448,0.012388751,-0.0034293924,0.40162912,-0.02032966,-0.028896628,1.1987802
82092.272946,0.030235352,-0.033914346,3.195017,0.012388751,-0.0034293924,0.40162912,-0.020607214,-0.030731095,1.2058063
82092.292465,0.028719699,-0.02988028,2.7956133,0.009501914,0.0014595067,0.40295532,-0.021592863,-0.030906549,0.8088896
82092.311098,0.028909458,-0.029847486,2.795248,0.012694183,-0.00079971337,0.39950857,-0.013893745,-0.018061753,0.40355122
82092.329725,0.029210558,-0.028407924,2.7951534,0.00928154,-0.00049428083,0.3994067,-0.016278656,-0.015053126,0.40957892
82092.348368,0.030326122,-0.027235897,2.7955372,0.012457058,0.005649851,0.40534723,-0.018133095,0.0030901562,0.016446432
82092.366975,0.028085602,-0.023223132,2.3960514,0.015561637,-0.0069973804,0.4024295,-0.005843894,-0.00076503557,0.42715752
82092.385607,0.025800422,-0.019774733,1.9965191,0.014306405,-0.0058748308,0.4024804,0.0031951491,-0.013817448,0.8201866
82092.404235,0.022857556,-0.015685061,1.5970732,0.01765139,-0.000765559,0.3999667,0.017783636,-0.01410078,1.2218212
82092.423688,0.022706477,-0.016178861,1.5978799,0.012250804,0.0011373232,0.40010265,0.021585867,-0.008942622,1.6185747
82092.441528,0.020422535,-0.01245108,1.1988746,0.014510025,0.00078098493,0.39887825,0.024958165,-0.0064207143,2.0138912
82092.460113,0.021038068,-0.013149481,1.1990826,0.016783366,-0.0056035533,0.3983183,0.027172083,-0.012821563,2.0125153
82092.478733,0.021531636,-0.01310651,1.1989404,0.019500734,-0.0018345732,0.39930227,0.040342953,-0.017693536,2.4120266
82092.497478,0.021960422,-0.012924366,1.1983075,0.016817521,-0.0026999656,0.39904773,0.039743934,-0.017577259,2.4079123
82092.51782,0.021960422,-0.012924366,1.1983075,0.016240811,-0.0015123896,0.39735112,0.041140545,-0.021055846,2.4012835
82092.538254,0.022450862,-0.012786972,1.1980047,0.016240811,-0.0015123896,0.39735112,0.040292565,-0.024655351,2.399994
82092.558653,0.022876648,-0.011887483,1.1977825,0.015307762,-0.0042974153,0.39888093,0.03388398,-0.033539075,2.4007556
82092.578065,0.02576126,-0.01602705,1.5980487,0.0070571266,-0.0077951164,0.40186954,0.032814443,-0.03428663,2.4004228
82092.5967,0.021993047,-0.011561763,1.1989309,0.014747803,-0.004311536,0.40254807,0.035552483,-0.04793176,2.8003523
82092.615331,0.0186028,-0.0072224676,0.7992342,0.020928718,-0.0023268766,0.3918005,0.0339417,-0.03040508,2.3878152
82092.633942,0.01888953,-0.008084691,0.7983647,0.015799413,-0.0044475016,0.39490762,0.034727845,-0.022788957,2.378445
82092.652562,0.02323596,-0.008371351,1.1939212,0.017583733,0.0012384813,0.3975567,0.026729116,-0.013801761,1.9805609
82092.671213,0.02391755,-0.008661802,1.1922601,0.012794014,-0.007130716,0.3892719,0.024129545,-0.027174294,1.9717139
82092.689823,0.02106136,-0.007763447,0.7932062,0.016342621,-0.0009665508,0.39090288,0.019989012,-0.026962696,1.5760546
82092.708449,0.021442061,-0.007336084,0.79120207,0.015627317,-0.0023436279,0.3894125,0.016150972,-0.023157425,1.5781125
82092.727117,0.02144594,-0.006396813,0.7908871,0.015576412,-0.004348321,0.388154,0.008830012,-0.024543243,1.5788469
82092.745719,0.021298258,-0.0061263745,0.790791,0.027531,-0.0033075477,0.7883242,0.012204888,-0.02401266,1.581779
82092.764329,0.020834124,-0.008038857,0.79073,0.02544453,-0.0068903095,0.78965044,0.015431821,-0.0258462,1.5877467
82092.783119,0.023362333,-0.012383717,1.1870786,0.01899168,-0.008165576,0.7863222,0.010204638,-0.019208973,1.1901792
82092.803545,0.023362333,-0.012383717,1.1870786,0.018906621,-0.0062285387,0.7845237,0.019841254,-0.01898309,1.5873251
82092.82402,0.02426815,-0.011112637,1.1879467,0.018906621,-0.0062285387,0.7845237,0.0177006,-0.014654153,1.584693
82092.844358,0.019467374,-0.005120517,0.78990746,0.017922668,-0.0023235937,0.78576225,0.015085037,-0.009255004,1.5926446
82092.863681,0.019005371,-0.0048843627,0.78988665,0.025036633,-0.0014582014,0.7900402,0.013918885,-0.009455081,1.5938987
82092.882289,0.018118568,-0.0051370505,0.78907555,0.021131687,-0.00633298,0.78267175,0.0161487,-0.013375183,1.5930237
82092.900918,0.021721384,-0.009240857,1.1881588,0.021080783,-0.00079643074,0.78776693,0.011363141,-0.011826504,1.193972
82092.919542,0.02219464,-0.009177682,1.1878134,0.020538224,-0.0023403445,0.784286,0.017463105,-0.0010327874,1.2062473
82092.938205,0.028377077,-0.015435225,1.5933536,0.018397566,-0.004904997,0.779448,0.017831994,-0.008672234,1.6010084
82092.9568,0.032030735,-0.019850444,1.9931511,0.02199708,-0.007249277,0.7866295,0.022231383,-0.014220619,1.6105852
82092.975413,0.032121226,-0.018454576,1.9932467,0.028839767,-0.01414287,1.1839298,0.020064281,-0.011627319,1.2111092
82092.994041,0.03171597,-0.0186531,1.9925175,0.027038693,-0.008182326,1.1845573,0.018442782,-0.011245642,1.6078986
82093.012676,0.025020361,-0.011537283,1.5854158,0.025902024,-0.011187725,1.1857308,0.017550366,-0.016444815,2.0056345
82093.031296,0.021628527,-0.0083357105,1.1847303,0.029043386,-0.0078085847,1.1818424,0.021970734,-0.011383631,2.0020096
82093.04992,0.025768489,-0.010633,1.5899163,0.013475166,-0.008696641,0.78461283,0.013956524,-0.012043507,1.5940514
82093.068891,0.025636693,-0.010507412,1.5895987,0.02077272,-0.0026342857,0.7841037,0.015956128,-0.009805466,1.1934143
82093.089287,0.025636693,-0.010507412,1.5895987,0.020823626,-0.006979976,0.7812678,0.016688406,-0.020022467,1.5834689
82093.109671,0.025132595,-0.009764894,1.589684,0.020823626,-0.006979976,0.7812678,0.0151444925,-0.016182547,1.5899211
82093.130125,0.025202492,-0.00978402,1.5902276,0.020518193,-0.0034822747,0.7889417,0.0133204805,-0.018038437,1.5857458
82093.149269,0.025083974,-0.009295873,1.5908852,0.02180758,-0.0067596044,0.78186196,0.017619897,-0.023155538,1.98201
82093.167881,0.02431955,-0.008824944,1.591427,0.020161856,-0.008357055,0.7842538,0.019998875,-0.03367702,1.9778239
82093.186511,0.025595687,-0.008946373,1.5917033,0.01839757,-0.005639685,0.7879551,0.021296017,-0.0340478,1.9881024
82093.205133,0.02448023,-0.007564859,1.5928868,0.024476672,-0.0126350885,1.1953753,0.02087594,-0.032303616,1.9860301
82093.223758,0.024155945,-0.008199946,1.5928656,0.026919482,-0.015026991,1.1921664,0.03137074,-0.04394941,2.3941138
82093.242398,0.024045907,-0.0074465387,1.5941577,0.023713091,-0.0209675,1.5943046,0.021693848,-0.048078757,1.9987985
82093.261012,0.024752727,-0.008539461,1.5948137,0.028751425,-0.020814786,1.5990409,0.019430002,-0.048430115,2.0091512
82093.279648,0.02844788,-0.013158229,1.9946489,0.030281218,-0.018572967,1.6010288,0.01661676,-0.045541357,2.0261269
82093.298273,0.02371247,-0.012342758,1.5866343,0.029975787,-0.024889851,1.5923198,0.026590183,-0.0470352,2.4332535
82093.31691,0.023525635,-0.012805886,1.5870279,0.032200847,-0.016215222,1.5877337,0.029609783,-0.045345455,2.4255588
82093.33552,0.02339776,-0.013083537,1.5877895,0.025324663,-0.026841007,1.5943727,0.018316533,-0.048884112,2.43072
82093.354559,0.019146906,-0.00946655,1.1872344,0.030756116,-0.025127627,1.5951363,0.02260221,-0.05934131,2.825577
82093.374946,0.019146906,-0.00946655,1.1872344,0.026596645,-0.020829558,1.6038451,0.015660398,-0.053559214,2.848362
82093.395389,0.019797573,-0.010423884,1.1883656,0.026596645,-0.020829558,1.6038451,0.008125802,-0.04186597,2.4506218
82093.415761,0.023909353,-0.016403126,1.5918485,0.026952982,-0.019676138,1.5979189,0.0031438314,-0.03151303,2.4541175
82093.434849,0.019981658,-0.0118365595,1.1921688,0.025969027,-0.018929306,1.5997542,0.0011059263,-0.027657226,2.454312
82093.453496,0.027482577,-0.02368348,1.985938,0.023305848,-0.01274839,1.1969007,-0.0024511504,-0.018990455,2.4533598
82093.472121,0.030809784,-0.028427245,2.3878925,0.028330058,-0.019845605,1.1913475,-0.01356361,-0.0036187803,1.6429912
82093.490726,0.031164996,-0.029275207,2.3885949,0.021792807,-0.014292304,1.19094,-0.0065262467,-0.0020186026,2.0360358
82093.509361,0.034604978,-0.03316564,2.7905862,0.021589184,-0.012273491,1.1957982,-0.010720645,0.012272163,1.2246422
82093.528006,0.034395162,-0.033016402,2.7915428,0.020079425,-0.01376913,1.1967653,-0.0122874975,0.004333669,1.6135942
82093.546609,0.037366405,-0.030356914,3.1956654,0.024408363,-0.01733186,1.1924505,-0.014114463,0.0043301005,1.2064914
82093.565231,0.03654732,-0.032076214,3.1940517,0.022711733,-0.018912556,1.1865917,-0.013084109,-0.010649923,1.5967768
82093.58386,0.033387307,-0.026972266,2.8032506,0.018824192,-0.015652632,1.1956602,-0.010754377,0.0019420678,1.1947423
82093.602478,0.033619124,-0.028057931,2.8030567,0.02249136,-0.01168003,1.2003113,-0.012858546,0.01656123,1.2016443
82093.6211,0.033526383,-0.032809693,2.7995415,0.021368809,-0.018234037,1.1957253,-0.015359263,0.011981291,0.7813404
82093.640253,0.03350357,-0.03316914,2.7995882,0.025748655,-0.016483871,1.1979336,-0.007875365,0.004241252,0.779669
82093.660663,0.03350357,-0.03316914,2.7995882,0.025053382,-0.017284235,0.7946417,0.0055527934,-0.012591024,0.7717139
82093.681038,0.033825826,-0.031430174,2.7985668,0.025053382,-0.017284235,0.7946417,0.012395874,-0.022401622,1.1674834
82093.701459,0.03405308,-0.031529922,2.7984073,0.02483301,-0.01619584,0.79251784,0.00997084,-0.02656295,1.5668067
82093.72044,0.03409799,-0.03232032,2.7945263,0.009400754,-0.0019679083,0.3911768,0.009304728,-0.02892717,1.9687544
82093.739084,0.033656336,-0.031522375,2.7940722,0.012013029,-0.007199025,0.39134625,0.009859476,-0.037834737,1.9762243
82093.757702,0.02959874,-0.02672548,2.3940616,0.011656691,-0.00538055,0.3927207,0.015696477,-0.05327108,2.7791293
82093.776322,0.0320273,-0.030460445,2.7959795,0.01106323,-0.0006276159,0.39214396,0.013228025,-0.04417232,2.3765643
82093.794954,0.034924816,-0.034288015,3.1963942,0.014102783,-0.005926389,0.39300933,0.0132721225,-0.03925544,2.3845952
82093.813576,0.034637954,-0.03382503,3.1964414,0.017464519,-0.011954588,0.80110806,0.013258767,-0.038369685,2.409629
82093.832227,0.034765292,-0.03429918,3.1963432,0.010350554,-0.0050242115,0.40068328,0.0151349865,-0.041903336,2.4196403
82093.85083,0.034671184,-0.0346367,3.197379,0.010757797,-0.007673925,0.39414605,0.010239922,-0.057443798,2.4157374
82093.869454,0.031142645,-0.029872246,2.7965448,0.021759303,-0.011066533,0.8043172,0.016189946,-0.049634814,2.4256282
82093.888082,0.031228438,-0.029698968,2.7979972,0.023899963,-0.017247448,0.8091042,0.024621481,-0.06304965,2.8398035
82093.906724,0.027355501,-0.024661383,2.4012308,0.027414419,-0.020236095,1.2135185,0.01897635,-0.049512785,2.8486664
82093.926022,0.026508143,-0.024384417,2.4020312,0.031760108,-0.022984335,1.2142993,0.021027738,-0.04112554,2.4561822
82093.946365,0.026508143,-0.024384417,2.4020312,0.03036891,-0.03083101,1.6139916,0.031413864,-0.05008446,2.4542634
82093.966749,0.025650851,-0.02420112,2.4037468,0.03036891,-0.03083101,1.6139916,0.022258485,-0.039969776,2.0507092
82093.987157,0.025258662,-0.024725214,2.4041994,0.019214684,-0.020538898,1.213296,0.021793775,-0.030883616,1.644947
82094.006069,0.025134007,-0.024244448,2.4064295,0.030877963,-0.026974343,1.6116003,0.023326246,-0.028528964,1.641111
82094.024694,0.02549736,-0.023966203,2.4077659,0.02906014,-0.028130392,1.2089137,0.033695668,-0.05307333,2.0260546
82094.043331,0.025237871,-0.02405207,2.408672,0.0074637174,-0.014106085,1.2179137,-0.001194595,-0.043493133,2.829889
82094.061947,0.025372917,-0.02394642,2.4095592,0.04566585,-0.03611238,1.2237144,0.035379842,-0.067143254,2.82281
82094.080593,0.02933841,-0.042823523,2.8078701,0.028042033,-0.0353823,1.220234,0.039167967,-0.0840202,2.8096664
82094.099217,0.022392316,-0.016573185,2.010541,0.029025987,-0.009032945,1.2279588,0.044365942,-0.064676575,2.4092402
82094.11784,0.022576906,-0.015572374,2.0113924,0.026851827,-0.017045803,1.2247499,0.0430785,-0.07054682,2.8026612
82094.136423,0.025373707,-0.021831753,2.4132411,0.028330714,-0.031053362,1.2196206,0.033546787,-0.08054779,2.3754766
82094.155045,0.025597708,-0.022146435,2.4138315,0.029636852,-0.03000175,1.2277218,0.03574693,-0.104398735,2.3716881
82094.173668,0.028498016,-0.028383976,2.816301,0.028754711,-0.0029196844,1.2267009,0.026966622,-0.06945462,2.3662784
82094.19229,0.028742509,-0.02856039,2.8162582,0.029009238,-0.0025633469,1.230606,0.027460681,-0.034288153,2.3728068
82094.211647,0.032080818,-0.03549552,3.217592,0.028941585,-0.017334485,1.2240177,0.038416523,-0.036304176,2.767103
82094.232095,0.032080818,-0.03549552,3.217592,0.02693689,-0.017656669,1.2294184,0.035495535,-0.036304176,2.7738752
82094.252421,0.02949688,-0.030593572,2.8165252,0.02693689,-0.017656669,1.2294184,0.029643336,-0.026814336,2.7805176
82094.272899,0.026802478,-0.026030896,2.416002,0.027140511,-0.016774528,1.2220131,0.04348888,-0.029198319,2.776592
82094.291624,0.026748301,-0.025470084,2.4158804,0.02600384,-0.021001657,1.2238992,0.06047411,-0.03879974,2.7711823
82094.310255,0.037284683,-0.03529835,3.213007,0.026003838,-0.018335192,1.2305892,0.013524766,-0.004605526,2.3748868
82094.328897,0.037026968,-0.03590836,3.2123635,0.027225567,-0.008099896,0.8156309,0.023622274,0.013503882,2.7734063
82094.347507,0.032392938,-0.03802161,3.213968,0.017990978,-0.0069431923,0.82639533,0.013082546,0.01253897,2.376691
82094.36614,0.032346684,-0.038264755,3.21327,0.023829674,-0.009507846,0.8238983,0.0127134,0.015960028,1.9831495
82094.384763,0.03264636,-0.037703503,3.210252,0.012844921,-0.00025650454,0.41145387,0.009098572,0.035957936,2.3992848
82094.40339,0.030485392,-0.033371527,2.808791,0.01715711,0.004343713,0.40337536,0.0016240217,0.06768011,1.9923029
82094.422012,0.030630698,-0.032892313,2.8071668,0.01591863,-0.0023771292,0.40799233,0.0020479,0.027641721,2.3963795
82094.440647,0.0308346,-0.032497827,2.8062458,0.017326577,0.0014769105,0.40789315,-0.0055926815,0.007419218,1.5915884
82094.459266,0.030706355,-0.033234704,2.8042078,0.018143693,-0.017710859,0.79128766,-0.003333153,-0.015237272,1.9855176
82094.477889,0.033419814,-0.03793785,3.2037222,0.020213412,-0.0038533872,0.40792665,3.6972884e-05,-0.009719568,1.1830678
82094.497279,0.038364906,-0.042742144,3.600687,0.01773382,-0.004362441,0.4001509,0.0024706414,-0.01043161,0.79075974
82094.51777,0.038364906,-0.042742144,3.600687,0.016085466,-0.0059431405,0.4013116,0.0031659137,-0.010787945,0.8000822
82094.538088,0.03412704,-0.035795923,3.2029178,0.016085466,-0.0059431405,0.4013116,0.010363073,-0.02050694,1.2031655
82094.55854,0.034476057,-0.03885018,3.2021573,0.017140359,-0.008505163,0.38893235,0.0085401805,-0.026127683,1.1916957
82094.577255,0.034711633,-0.04045995,3.2011445,0.0210279,-0.010014922,0.7789859,0.00090847566,-0.02392338,0.7955041
82094.595882,0.035188694,-0.041468944,3.200715,0.012794015,-0.0068426873,0.39217553,0.005888021,-0.041366737,1.5867246
82094.614523,0.03245821,-0.034197684,2.7989361,0.014303774,-0.0019846593,0.39343405,0.0042514396,-0.04147855,1.5814816
82094.633148,0.032224577,-0.034004696,2.7984467,0.015118261,-0.0054147043,0.39611724,0.007001555,-0.042853046,1.5833048
82094.651753,0.03144964,-0.034009423,2.7987483,0.018463247,-0.0036671686,0.3898513,0.006647361,-0.041854072,1.1825213
82094.67039,0.03067145,-0.03409672,2.7985964,0.01612225,-0.0065372544,0.3945533,0.006404802,-0.04347001,1.1832525
82094.688979,0.024267418,-0.019970495,1.9951853,0.012641299,-0.0053155236,0.39711794,0.006286252,-0.05901743,1.9897932
82094.707615,0.024381986,-0.020651,1.9950646,0.0135401925,-0.0067743775,0.39304355,0.0043260367,-0.0534917,2.003636
82094.72623,0.027150383,-0.02711883,2.394698,0.014238748,-0.002632309,0.39027524,0.001892802,-0.053301793,2.395745
82094.74486,0.028218715,-0.025156982,2.396377,-0.0120629845,0.016249374,0.79597884,-0.054816637,-0.007895281,2.8085325
82094.763506,0.027343048,-0.02418214,2.3952627,0.03082771,-0.043586623,0.8008657,-0.027936528,-0.06418249,2.4077446
82094.78295,0.027252957,-0.025181018,2.3956013,0.032693807,-0.014225952,0.78826946,0.0032637604,-0.061658528,2.40353
82094.803334,0.027252957,-0.025181018,2.3956013,0.017037896,-0.024243504,0.8069281,0.002344829,-0.077702306,2.4211195
82094.824673,0.023960968,-0.018146617,1.9952086,0.017037896,-0.024243504,0.8069281,0.000427261,-0.10548986,2.8323987
82094.844169,0.02410368,-0.019447565,1.9961472,0.010520677,-0.022394158,0.7957738,0.0007301692,-0.09940094,2.4342597
82094.862822,0.024392143,-0.022119442,1.9966893,0.015392172,-0.021407574,0.7968597,-2.643854e-05,-0.10774056,2.4352543
82094.88144,0.023695854,-0.021887757,1.997022,0.006106676,-0.030509481,0.8037532,-0.009707046,-0.12019395,2.036394
82094.900073,0.024440654,-0.02199582,1.9976248,0.0246977,-0.017485877,0.8092556,-0.0015212825,-0.13096596,2.4527485
82094.917448,0.021922648,-0.017540613,1.5973822,0.027007824,0.011988091,0.7980814,0.0054658162,-0.097224176,2.0480747
82094.936093,0.022786519,-0.016854206,1.5971333,0.023611933,0.043113697,0.7859399,0.014324502,-0.033293534,1.62743
82094.953355,0.020324828,-0.011754993,1.1969714,0.023459218,0.010017554,0.8056534,0.019975198,-0.0013677335,1.2329055
82094.968808,0.020370172,-0.010908398,1.1969358,0.014204594,-0.0067911283,0.79864126,0.017544502,-0.004139902,1.236218
82094.987051,0.020370172,-0.010908398,1.1969358,0.022288395,-0.00641804,0.795449,0.08855238,-0.052306637,1.2188005
82095.007345,0.019895362,-0.009817117,1.1969379,0.019011065,-0.008151455,0.79447913,0.07888815,-0.019652488,1.2069501
82095.02775,0.022543302,-0.014555956,1.5983018,0.019011065,-0.008151455,0.79447913,0.04986475,0.017799579,0.8050484
82095.047869,0.025191933,-0.018060373,1.999344,0.014696247,-0.0071474668,0.802512,0.032822598,0.018902099,0.8149168
82095.066466,0.025916552,-0.017604703,1.9996406,0.016836904,-0.007096561,0.79911613,0.03479812,0.044414695,0.7932252
82095.085138,0.02669116,-0.018002342,1.9998394,0.0147304,-0.004057008,0.7962802,0.04270659,0.052726343,1.1948879
82095.103723,0.027670493,-0.017388664,1.9988395,0.020809507,-0.010543357,1.2013053,0.045683593,0.05688114,1.5906559
82095.119855,0.027961759,-0.017697362,1.9988766,0.02690536,-0.016483866,1.5991653,0.0579934,0.07158037,1.5811688
82095.138513,0.028263452,-0.017424695,1.998429,0.02578281,-0.013412791,1.6019845,0.051439986,0.07335021,1.5691835
82095.157174,0.02845461,-0.017464744,1.9978733,0.022064736,-0.0133451335,1.5995216,0.038728718,0.047080312,1.5682592
82095.173154,0.02845461,-0.017464744,1.9978733,0.025053384,-0.012954641,1.602341,0.032191064,-0.011088262,1.5794996
82095.193568,0.028562212,-0.015360248,1.9982821,0.025053384,-0.012954641,1.602341,0.02813077,-0.026249245,1.5697026
82095.212986,0.02486481,-0.010866485,1.5979277,0.02510429,-0.008931135,1.5987415,0.02647872,-0.031033514,1.5701195
82095.231636,0.024483627,-0.0130757345,1.5958725,0.021114936,-0.009813278,1.2017126,0.027512426,-0.034068722,1.5691768
82095.248975,0.021421215,-0.00844782,1.1950408,0.021488028,-0.0064173862,1.1968765,0.010925782,-0.029122435,1.1745806
82095.26765,0.021468224,-0.007931523,1.1948276,0.021640742,-0.010373238,1.203261,0.006143781,-0.03396056,1.5949444
82095.287016,0.025756145,-0.012329093,1.5942608,0.02021276,-0.014736332,1.1937352,0.004117277,-0.042995006,1.5788412
82095.304869,0.029595016,-0.015576944,1.9939834,0.021725802,-0.009997519,1.2019376,-0.0050328593,-0.031861726,0.7835207
82095.323505,0.028837988,-0.013444778,1.9939904,0.025596594,-0.015519295,1.1944674,0.003642053,-0.04586162,0.77728194
82095.34212,0.031400524,-0.016949771,2.3954298,0.024015894,-0.010986733,1.1999187,0.00044099925,-0.04249559,-0.016266147
82095.360745,0.030181201,-0.017097196,2.3957062,0.02282832,-0.010644515,1.201734,0.002029834,-0.04827088,0.39551225
82095.379377,0.030345013,-0.017297382,2.3957279,0.019313866,-0.0045686928,0.7932453,0.001670084,-0.05805168,0.3976518
82095.39802,0.031411327,-0.026239766,2.3984206,0.012949363,-0.0120176375,0.7990338,-0.0018549158,-0.05585842,0.40087476
82095.418018,0.031411327,-0.026239766,2.3984206,0.01792267,-0.019045217,0.79499024,0.0031830992,-0.06121395,0.7992315
82095.43844,0.030507997,-0.027741993,2.3980181,0.015663449,-0.019078718,0.7997632,-0.0038427499,-0.06445577,0.40596533
82095.45877,0.034554895,-0.032262776,2.7974272,0.015663449,-0.019078718,0.7997632,-0.0023086166,-0.06626514,0.4075199
82095.478708,0.035103817,-0.033900224,2.7972946,0.01858444,-0.02084366,0.794583,0.0023021603,-0.071617566,0.8063862
82095.49734,0.0361663,-0.0325509,2.7956684,0.015850319,-0.019350652,0.79833525,-0.0034970555,-0.06817547,0.41059852
82095.515957,0.03653984,-0.03261635,2.7920454,0.015646698,-0.012286938,0.8007981,-0.0113594895,-0.05497348,0.013076544
82095.534581,0.039960552,-0.03807803,3.191805,0.017481923,-0.012609121,0.80064535,-0.0115570165,-0.037175518,-0.37139186
82095.553207,0.039953817,-0.039032932,3.1921113,0.017176488,-0.013358583,0.7974022,-0.0040082675,-0.04327914,0.42348865
82095.571816,0.040000264,-0.04022451,3.1912224,0.018906623,-0.018840944,1.1998316,-0.015459292,-0.025067225,0.03292163
82095.590479,0.040052857,-0.040779807,3.1915705,0.018635346,-0.0174839,0.7920216,-0.008489933,-0.03245632,0.8189438
82095.609101,0.038665995,-0.031499613,3.1899729,0.00887495,-0.0037771675,0.7951288,-0.019024475,-0.013913411,0.81015253
82095.627759,0.038847346,-0.030546332,3.1908004,0.028636148,-0.03834827,1.1946206,-0.0112091815,-0.0151544325,0.80395365
82095.646338,0.03952827,-0.030863501,3.1907213,0.01709143,-0.024476675,1.1990681,-0.007934188,-0.015255664,0.8034622
82095.664982,0.03990355,-0.031443547,3.1908493,0.013882411,-0.029739315,1.202973,-0.017753799,-0.013391591,0.8105095
82095.683666,0.036262263,-0.024885476,2.7938013,0.028565206,-0.039600868,1.9945172,-0.011410932,-0.010794981,1.2036024
82095.703601,0.036262263,-0.024885476,2.7938013,0.02919282,-0.038413294,1.9975058,-0.009881567,-0.005442381,1.207501
82095.724057,0.03568461,-0.024759779,2.7938948,0.03031537,-0.04135104,1.9941441,-0.0038337624,-0.005523868,1.201976
82095.744506,0.038627706,-0.029403275,3.1942713,0.03031537,-0.04135104,1.9941441,0.004978809,-0.02024318,1.5963917
82095.764317,0.037027236,-0.031709176,3.1947956,0.02652636,-0.041605566,2.0015295,0.006934624,-0.025504196,1.5966148
82095.782927,0.032993156,-0.029397398,2.795412,0.029515006,-0.04311532,1.9968106,0.019151235,-0.044868693,2.3895905
82095.80156,0.032596502,-0.028811289,2.7956865,0.025084257,-0.040075768,2.0010378,0.017399259,-0.048437383,2.3952703
82095.820181,0.032490518,-0.029981934,2.796855,0.028276525,-0.04048301,2.0010889,0.022577377,-0.04887153,2.3973634
82095.838802,0.035399817,-0.035531487,3.1970322,0.029260479,-0.03753115,2.000478,0.017140308,-0.03420336,1.610977
82095.857413,0.03555731,-0.03568634,3.197033,0.029260479,-0.035322834,1.9990358,0.030201307,-0.040537175,1.6161495
82095.87605,0.03865237,-0.041385043,3.5977376,0.028989203,-0.025873804,1.998238,0.020658337,-0.020183917,1.2227987
82095.89471,0.03874851,-0.041770175,3.5979283,0.029141918,-0.021697583,1.9984417,0.025039027,-0.014195246,1.2243989
82095.913295,0.034945946,-0.03702445,3.1981564,0.028887391,-0.024601169,1.9932613,0.031124314,-0.006162513,0.8179949
82095.933324,0.034945946,-0.03702445,3.1981564,0.029345542,-0.023342654,1.994944,0.03164764,-0.0027098537,0.81989926
82095.95378,0.035302673,-0.03983769,3.197998,0.024354832,-0.025582494,1.9931087,0.027573228,0.0021287936,0.8174873
82095.974044,0.031304367,-0.03861734,2.7982643,0.024354832,-0.025582494,1.9931087,0.01862714,-0.0016488893,0.8151948
82095.994021,0.03473514,-0.043410096,3.1995509,0.02068766,-0.025503345,1.5963341,0.013994113,-0.007307451,0.81599826
82096.012658,0.031265296,-0.038088463,2.8009932,0.01736271,-0.015722917,1.5947567,0.009456327,-0.0050814226,1.196905
82096.030033,0.031774435,-0.03775732,2.8004286,0.024951575,-0.026212739,1.9933633,-0.002967759,0.004565489,0.7935934
82096.048663,0.03081616,-0.03844795,2.7994976,0.027598001,-0.0219012,1.5972672,-0.001199039,0.011632472,0.38637814
82096.067285,0.031145342,-0.03923016,2.7995355,0.028581955,-0.018912554,1.587894,0.002237738,0.016495833,0.7573886
82096.082651,0.03100078,-0.039825976,2.7991498,0.027174005,-0.02047322,1.5982202,0.00650608,0.009970485,1.5536822
82096.098339,0.031790677,-0.039739087,2.7992294,0.023863176,-0.01387094,1.2007674,-0.0010924325,0.0074244253,1.1514071
82096.117015,0.03203972,-0.039064538,2.7984273,0.028344834,-0.018915186,1.2020735,0.003423159,-0.0053656795,1.5548156
82096.137435,0.032271516,-0.038847506,2.7982552,0.026340142,-0.014498557,1.1939247,0.0033933772,-0.012711328,1.5503116
82096.160433,0.032271516,-0.038847506,2.7982552,0.026340142,-0.014498557,1.1939247,0.0033933772,-0.012711328,1.5503116
82096.179037,0.033058472,-0.04220524,3.19507,0.020484691,-0.007930431,0.7943652,-0.001450005,-0.010445108,1.1534063
82096.197653,0.033019695,-0.042522,3.1954195,0.02187589,-0.011479038,0.7992401,-0.0026070923,-0.022157686,1.5594072
82096.216294,0.029893689,-0.03727628,2.7948349,0.026052112,-0.012004842,0.7947893,0.0073176846,-0.03575469,1.5610532
82096.234932,0.027009225,-0.032425568,2.3947542,0.02518672,-0.007791834,0.79708266,0.012367249,-0.018248813,1.5663751
82096.253543,0.027444387,-0.03301823,2.3939407,0.022693006,-0.009779776,0.7954879,0.017561216,-0.014278681,1.1771778
82096.270921,0.028235383,-0.03329237,2.393503,0.023151157,-0.011442252,0.7974725,0.022558393,-0.013387834,1.1845974
82096.289568,0.025586866,-0.029120473,1.9928846,0.023405684,-0.013532005,0.7973197,0.020129919,-0.015583925,1.1887081
82096.308199,0.022911094,-0.023633905,1.5921961,0.021519551,-0.014414149,0.7942293,0.012508211,-0.031264756,1.2098137
82096.327537,0.022947041,-0.023345819,1.5930153,0.024202764,-0.013277478,1.1897794,0.010581474,-0.025577215,1.2022198
82096.346164,0.023283117,-0.022714702,1.5917226,0.022503503,-0.017199174,1.1959604,0.0052923025,-0.020955406,0.80319166
82096.364303,0.022984115,-0.022187887,1.5918373,0.026476106,-0.017046457,1.1882697,0.0031220175,-0.013392967,0.79203814
82096.384687,0.022984115,-0.022187887,1.5918373,0.024013266,-0.016500618,1.1974224,0.00055736414,-0.010879221,0.7971334
82096.405145,0.02304426,-0.02331882,1.5926493,0.024013266,-0.016500618,1.1974224,-0.000972275,-0.0133332675,1.1972556
82096.424897,0.025594592,-0.024970377,1.9919561,0.019975634,-0.01952342,1.1927513,0.0030158218,-0.017613621,1.5978361
82096.443531,0.025358258,-0.022118447,1.992229,0.027595373,-0.02208742,1.5960121,0.0023808882,-0.009391976,1.1936518
82096.462146,0.022048613,-0.017684465,1.5909725,0.030431306,-0.027892614,1.5913268,0.002295861,-0.011449508,1.1908667
82096.480771,0.024439082,-0.022991559,1.9887762,0.030977145,-0.025413023,1.5975245,0.0063003176,-0.015022297,1.2008438
82096.499402,0.026673973,-0.028175192,2.3882215,0.019788766,-0.014071931,1.1914444,0.0072009093,-0.012093261,1.1989218
82096.518027,0.029928157,-0.03224564,2.7877533,0.01773317,-0.013090607,1.1950808,0.0024922315,-0.0075080357,1.203634
82096.536652,0.029752709,-0.03075166,2.787183,0.01841169,-0.012225215,1.1880345,0.0013316219,-0.004910751,1.198376
82096.555306,0.030027622,-0.02995353,2.7870953,0.022384292,-0.012021594,1.1891202,0.009425272,0.0046484997,1.1952841
82096.573902,0.032401588,-0.034336608,3.1859007,0.020094201,-0.014244027,1.1913285,0.0074393265,-0.0019480108,0.8047528
82096.592534,0.032051053,-0.034917194,3.1865423,0.022062108,-0.017046457,1.192567,0.018638896,-0.01607472,1.602116
82096.611153,0.032030154,-0.034520395,3.1865928,0.009584344,-0.020035105,1.1941276,-0.00066598254,-0.033033777,2.0118034
82096.629791,0.031004503,-0.031878512,2.78984,0.009431628,-0.011442252,1.1909721,-0.019153057,-0.029709019,2.0058644
82096.649971,0.031004503,-0.031878512,2.78984,0.019228809,-0.011289536,1.1890693,-0.015774244,-0.025779061,2.0041893
82096.670389,0.03104028,-0.03143267,2.7895024,0.02433808,-0.018708935,1.1920578,-0.01062819,-0.028564088,2.003256
82096.690786,0.031403687,-0.032534275,2.7899113,0.02433808,-0.018708935,1.1920578,-0.006955482,-0.019517032,2.0074053
82096.710488,0.03135422,-0.032919064,2.7894545,0.024694419,-0.009983399,1.1919562,-0.011211247,-0.010280837,1.6105899
82096.729117,0.03088061,-0.031794492,2.7898397,0.020670911,-0.011306286,1.1964887,-0.012657127,-0.0073403385,2.0096471
82096.747731,0.030509325,-0.031754423,2.7896996,0.020467289,-0.01548251,1.2003087,-0.0073935394,-0.018509768,2.4277909
82096.766352,0.030202895,-0.030718377,2.790182,0.019025186,-0.015519294,1.1922448,-0.0014488281,-0.023195872,2.4207757
82096.784977,0.030677037,-0.030950638,2.7906015,0.022421077,-0.017079959,1.1891035,0.009508324,-0.036113694,2.816062
82096.803616,0.030364899,-0.030317992,2.7902412,0.019381521,-0.007896275,0.7917525,0.008843414,-0.044927586,2.8153212
82096.822224,0.028165549,-0.02618887,2.3912268,0.01907609,-0.0045345384,0.7954028,0.014150288,-0.045983274,3.2151546
82096.840855,0.03070912,-0.030722342,2.790762,0.016700938,-0.006213765,0.79446983,0.006523373,-0.034800705,2.4145565
82096.858225,0.030922502,-0.031172484,2.7908707,0.016751843,-0.0036832665,0.79236335,0.024156353,-0.016705943,2.0066538
82096.877025,0.027710358,-0.026072338,2.3914773,0.019550988,-0.0035814561,0.7893405,0.049941298,-0.02091082,1.9965643
82096.897467,0.027710358,-0.026072338,2.3914773,0.014153689,-0.0053657764,0.3941467,0.050239336,-0.040012762,2.3964665
82096.917913,0.028328413,-0.025876293,2.3916447,0.014153689,-0.0053657764,0.3941467,0.04959497,-0.040878154,2.3977048
82096.938261,0.027732931,-0.02520827,2.3915014,0.017396864,-0.015672011,0.79475516,0.0531479,-0.05436383,2.804814
82096.957616,0.025076957,-0.020761734,1.9923166,0.017295053,-0.011767066,0.80093604,0.05797589,-0.059580777,3.2114923
82096.976196,0.022165969,-0.016645227,1.5929117,0.013607849,-0.008880229,0.7934999,0.059570823,-0.054744277,3.2026196
82096.994852,0.019423136,-0.011892524,1.1940054,0.017769951,-0.006369764,1.1891518,0.049574118,-0.043917626,2.7804852
82097.013468,0.019270224,-0.012061138,1.1945921,0.022845069,-0.0064206696,1.1926494,0.05364853,-0.039181236,3.1760893
82097.032081,0.019141866,-0.012358687,1.1945533,0.031488825,-0.0157262,1.1996616,0.053861197,-0.032228064,2.7889597
82097.050732,0.016736405,-0.007759332,0.7954857,0.019974984,-0.0120389955,1.1973206,0.04741295,-0.027917473,2.800191
82097.069323,0.02002553,-0.012079931,1.1949872,0.017905267,-0.01424731,1.1982027,0.035383888,-0.033130113,2.4073982
82097.087978,0.023630464,-0.017003413,1.5947202,0.018685598,-0.009494376,1.1915127,0.03226469,-0.03344411,2.8015182
82097.106603,0.027142258,-0.02110333,1.9944878,0.018787408,-0.011631752,1.2022771,0.026273316,-0.032392975,2.4129353
82097.125233,0.027739344,-0.021397835,1.9947048,0.023764,-0.011122697,1.1946032,0.026015848,-0.03816227,2.4238145
82097.145004,0.027587378,-0.020744031,1.9946833,0.023167253,-0.015027642,1.1964183,0.03159761,-0.035541937,2.429258
82097.165297,0.027587378,-0.020744031,1.9946833,0.021759303,-0.014467683,1.1957058,0.028320277,-0.036678612,2.4303439
82097.185709,0.027911251,-0.019924851,1.9944528,0.021759303,-0.014467683,1.1957058,0.019416532,-0.038524255,2.4241774
82097.205939,0.027815565,-0.020616062,1.994627,0.018668847,-0.013501133,1.1944671,0.013103838,-0.039742626,2.4170666
82097.224561,0.028413417,-0.020684166,1.9948715,0.02417124,-0.007896927,1.1887611,0.014370717,-0.042029295,2.4070523
82097.243186,0.028795026,-0.020557584,1.9945374,0.017209992,-0.014061092,1.1891034,0.019239215,-0.092475325,2.406577
82097.261841,0.034274813,-0.06079604,1.9932767,0.022249632,-0.062406484,1.190565,-0.0026540484,-0.03216324,2.0121253
82097.28044,0.028871158,-0.024756512,1.9947839,0.022234203,-0.032285243,1.1885601,-0.0074993875,-0.077715844,2.0034432
82097.299062,0.026785498,-0.016618142,1.9949988,0.019994365,-0.042972755,1.1932797,-0.0057885344,-0.08703086,1.598322
82097.31769,0.03030915,-0.017161619,1.9743028,0.017158436,-0.046806086,1.187455,-0.006313642,-0.06836974,1.599069
82097.336332,0.033192713,-0.022090478,2.3737044,0.017531522,-0.058719292,1.1913427,-0.003967825,-0.07117065,1.601503
82097.354937,0.03668688,-0.028051607,2.773648,0.016683536,-0.054577217,1.1906642,-0.0040091625,-0.06572194,1.5915723
82097.373566,0.03631648,-0.02869306,2.7729065,0.017480617,-0.058278535,1.1879977,-0.012790359,-0.05809973,1.1869535
82097.392202,0.037364744,-0.02946592,2.772548,0.016276289,-0.04815917,0.7901576,-0.020339811,-0.047300685,1.1770061
82097.410861,0.03728921,-0.028928695,2.7720711,0.016530816,-0.052912105,0.79139614,-0.02531833,-0.036796417,0.77163345
82097.430599,0.037461255,-0.027705938,2.7721703,0.01580139,-0.0460553,0.7962,-0.02418004,-0.031208875,0.7745328
82097.451004,0.037461255,-0.027705938,2.7721703,0.009824098,-0.047290493,0.39205694,-0.028070865,-0.03292226,0.776792
82097.471441,0.03762934,-0.027650656,2.772005,0.009824098,-0.047290493,0.39205694,-0.023686916,-0.035793133,0.784416
82097.491539,0.037463915,-0.027739955,2.7715673,0.01407126,-0.05325104,0.394418,-0.021601373,0.0010157212,1.1879656
82097.510158,0.037870888,-0.026940433,2.7713788,0.016344601,-0.050519545,0.3978139,-0.00019014906,-0.06431072,1.1919037
82097.528783,0.037483115,-0.026676312,2.7712586,0.014136287,-0.04919338,0.39688084,-0.0027355847,-0.013261088,1.1994575
82097.547403,0.033703674,-0.021246366,2.3720124,0.008517959,-0.046818223,0.39545283,-0.0067719356,0.0037967607,1.201446
82097.566041,0.029728672,-0.01674248,1.97267,0.008212526,-0.04676732,0.39188752,-0.0011538077,-0.009382947,1.5882521
82097.584658,0.02566515,-0.011736919,1.5726781,0.010115408,-0.052147865,0.39487615,0.002256452,-0.0141634345,1.5930091
82097.603282,0.025106182,-0.012205361,1.5725721,0.011625168,-0.05321688,0.39482522,0.010480571,-0.026948428,1.9968687
82097.621922,0.025192253,-0.012109768,1.5722941,0.014512005,-0.050265018,0.38675818,0.02412697,-0.03608745,2.3868024
82097.640538,0.02497022,-0.012890727,1.5727457,0.012100068,-0.0480058,0.39827204,0.027957099,-0.03244929,1.9981861
82097.65916,0.024916371,-0.011898473,1.5731028,0.0071944166,-0.053948943,0.39375356,0.027877351,-0.047704462,2.397817
82097.67781,0.02477815,-0.011738236,1.5730199,0.0075507555,-0.044948846,0.39523247,0.027649716,-0.045423433,2.3949182
82097.696436,0.027490199,-0.017398685,1.9721565,0.0020174894,-0.046495393,0.39528337,0.010690262,-0.044563964,2.0010703
82097.716347,0.02178692,0.02284713,1.9735721,0.010286854,0.0052426066,0.3974723,0.00579844,-0.025995767,1.6009597
82097.736738,0.02178692,0.02284713,1.9735721,0.016191883,-0.029866068,0.39774358,0.006205683,-0.024380915,1.5983949
82097.75717,0.027367344,-0.014220957,1.9719466,0.016191883,-0.029866068,0.39774358,0.013483186,-0.025372544,1.5960902
82097.777121,0.031289276,-0.027234288,2.370375,0.018448472,-0.018449126,0.39324453,0.01390256,-0.02503901,1.5953182
82097.795748,0.027361736,-0.024794303,2.3904312,0.014679494,-0.010337758,0.39243004,0.015529502,-0.025912384,1.1932923
82097.814374,0.023851074,-0.018954374,1.9905162,0.011741753,-0.000884121,0.39582595,0.016532226,-0.029195316,1.2024843
82097.833013,0.020646343,-0.013827264,1.5906683,0.0112836035,-0.000884121,0.39602956,0.015155058,-0.02826812,1.6049876
82097.851626,0.02019502,-0.012821858,1.591252,0.020636754,-0.007387221,0.7931094,0.020920178,-0.03757445,1.9991617
82097.870252,0.01924329,-0.01225061,1.5916729,0.020877162,-0.0040790197,0.7967598,0.017779114,-0.03705285,2.016054
82097.888888,0.018965797,-0.012615,1.5917915,0.016120946,-0.0035699655,0.7971328,0.014368047,-0.039817896,2.0141568
82097.907512,0.0196288,-0.013285391,1.592414,0.0006377834,0.010369282,0.8449151,-0.01563433,0.0008104183,2.1154728
82097.926168,0.022646843,-0.018810445,1.9922152,0.038450077,-0.01509793,0.72252315,0.027035246,-0.022268748,1.5693159
82097.944753,0.022116097,-0.018631632,1.992055,0.015374768,-0.012075129,0.81530255,0.048884403,-0.041410007,1.9878198
82097.963378,0.021534873,-0.018983673,1.9921408,0.026070843,-0.0034146195,1.1856366,0.048161346,-0.036042884,2.3660758
82097.982033,0.021297252,-0.018822419,1.9923295,0.028024629,-0.011936533,1.1760939,0.038914453,-0.029729301,1.9425201
82098.002016,0.021297252,-0.018822419,1.9923295,0.026223557,-0.0137717575,1.2092919,0.039387148,-0.042510986,2.7682846
82098.023657,0.021934383,-0.019228157,1.9918028,0.026223557,-0.0137717575,1.2092919,0.036283832,-0.037006333,2.772329
82098.042995,0.025788268,-0.02461528,2.3905618,0.02559594,-0.012615055,1.1991384,0.03730175,-0.043434996,3.1731567
82098.062725,0.026291177,-0.024928533,2.390292,0.023184007,-0.01332773,1.1957425,0.035238717,-0.03889115,2.7713087
82098.081349,0.026451195,-0.024669925,2.39022,0.02529051,-0.00993184,1.1977781,0.034987878,-0.03148668,2.3696468
82098.099978,0.02608251,-0.024679787,2.3900788,0.026019936,-0.009049697,1.193924,0.027540432,-0.015104982,1.9737169
82098.118599,0.025751518,-0.023773378,2.3903997,0.022725856,-0.008167553,1.1914812,0.015850076,-0.0041818386,1.5685512
82098.137239,0.025841089,-0.024257334,2.3899367,0.021470623,-0.012954642,1.1932454,0.0112856245,-0.0029363085,1.5644761
82098.155841,0.02578637,-0.024648195,2.3900592,0.023930185,-0.015722917,1.1896968,0.040865425,-0.02719975,1.0612273
82098.174469,0.022836566,-0.019096693,1.9913985,0.020197986,-0.017385392,1.1914302,-0.003927401,-0.008142869,1.2031877
82098.193114,0.02228341,-0.01923261,1.9912733,0.02506948,-0.014688056,1.1940626,-0.008034817,0.008718255,0.78355193
82098.211754,0.021851009,-0.018293204,1.9911369,0.024747297,-0.017778514,1.1991717,-0.011307102,-0.00934486,0.40949404
82098.231015,0.018748324,-0.013414028,1.5921355,0.021453219,-0.008574796,1.1934657,-0.016138745,-0.005501484,0.43050063
82098.248985,0.01680208,-0.010853518,1.1928979,0.021809556,-0.01670687,1.1927872,-0.021983242,-0.0012793696,0.0035545428
