current time,GRAVx,GRAVy,GRAVz,ACCx,ACCy,ACCz,NACCx,NACCy,NACCz
88660.994427,0.0,0.0,0.0,-0.076614454,0.018727979,9.632991,0.0,0.0,0.0
88661.018506,0.0,0.0,0.0,0.032368023,-0.077836186,4.854192,0.0,0.0,0.0
88661.038157,0.0,0.0,0.0,0.02809458,-0.049040083,3.2089608,0.0,0.0,0.0
88661.038157,0.056183934,-0.15322891,9.632991,0.02809458,-0.049040083,3.2089608,0.0,0.0,0.0
88661.058515,0.056183934,-0.15322891,9.632991,0.001631585,-0.047365785,2.4152884,0.0,0.0,0.0
88661.058515,0.056008503,-0.15329906,9.633064,0.001631585,-0.047365785,2.4152884,0.0,0.0,0.0
88661.079115,0.056008503,-0.15329906,9.633064,-0.0024403278,-0.049129415,3.8322692,0.0,0.0,0.0
88661.079115,0.03975914,-0.104245566,6.4159036,-0.0024403278,-0.049129415,3.8322692,0.0,0.0,0.0
88661.099268,0.03975914,-0.104245566,6.4159036,-0.0033893436,-0.04909657,3.230767,0.0,0.0,0.0
88661.099268,0.033199124,-0.07493838,4.808735,-0.0033893436,-0.04909657,3.230767,0.0,0.0,0.0
88661.12102,0.033199124,-0.07493838,4.808735,0.004540094,-0.04068651,2.7418709,0.0,0.0,0.0
88661.12102,0.030507307,-0.058618844,3.8446822,0.004540094,-0.04068651,2.7418709,0.0,0.0,0.0
88661.140316,0.030507307,-0.058618844,3.8446822,0.0058051785,-0.034531683,2.4015381,0.0,0.0,0.0
88661.140316,0.03287956,-0.07361852,4.809092,0.0058051785,-0.034531683,2.4015381,0.0,0.0,0.0
88661.160647,0.03287956,-0.07361852,4.809092,-0.0115937805,-0.028749691,2.1383193,0.0,0.0,0.0
88661.160647,0.027841462,-0.063059285,4.11978,-0.0115937805,-0.028749691,2.1383193,0.0,0.0,0.0
88661.181173,0.027841462,-0.063059285,4.11978,0.011972959,-0.03736373,1.9227769,0.0,0.0,0.0
88661.181173,0.025460044,-0.055119414,3.604,0.011972959,-0.03736373,1.9227769,0.0,0.0,0.0
88661.201649,0.025460044,-0.055119414,3.604,0.014289596,-0.044337068,2.628968,0.0,0.0,0.0
88661.201649,0.02485567,-0.047895927,3.204505,0.014289596,-0.044337068,2.628968,0.0,0.0,0.0
88661.221948,0.02485567,-0.047895927,3.204505,0.0072633796,-0.03599382,2.3933861,0.0,0.0,0.0
88661.221948,0.022984685,-0.041150384,2.8838255,0.0072633796,-0.03599382,2.3933861,0.0,0.0,0.0
88661.242401,0.022984685,-0.041150384,2.8838255,0.006234762,-0.036487065,2.2259827,0.0,0.0,0.0
88661.242401,0.021833248,-0.04960872,3.497181,0.006234762,-0.036487065,2.2259827,0.0,0.0,0.0
88661.262915,0.021833248,-0.04960872,3.497181,0.012914317,-0.03134561,2.0581095,0.0,0.0,0.0
88661.262915,0.011701655,-0.05166844,4.0068707,0.012914317,-0.03134561,2.0581095,0.0,0.0,0.0
88661.283337,0.011701655,-0.05166844,4.0068707,0.012704953,-0.02667739,1.9156317,0.0,0.0,0.0
88661.283337,0.0116531355,-0.05776584,4.438876,0.012704953,-0.02667739,1.9156317,0.0,0.0,0.0
88661.303738,0.0116531355,-0.05776584,4.438876,0.0038913,-0.031274386,1.809659,0.0,0.0,0.0
88661.303738,0.0024782612,-0.05749965,4.8084645,0.0038913,-0.031274386,1.809659,0.0,0.0,0.0
88661.324207,0.0024782612,-0.05749965,4.8084645,0.004692179,-0.039334234,2.259021,0.0,0.0,0.0
88661.324207,0.002646853,-0.06214792,5.1293254,0.004692179,-0.039334234,2.259021,0.0,0.0,0.0
88661.344678,0.002646853,-0.06214792,5.1293254,-0.0019057426,-0.041405357,2.6729424,0.0,0.0,0.0
88661.344678,0.0025045746,-0.057963915,4.808463,-0.0019057426,-0.041405357,2.6729424,0.0,0.0,0.0
88661.365131,0.0025045746,-0.057963915,4.808463,0.0070698545,-0.041133195,2.5263863,0.0,0.0,0.0
88661.365131,0.0020963717,-0.061897367,5.091652,0.0070698545,-0.041133195,2.5263863,0.0,0.0,0.0
88661.385598,0.0020963717,-0.061897367,5.091652,0.007571573,-0.03143913,2.4004536,0.0,0.0,0.0
88661.385598,0.0027732512,-0.058622964,4.8085566,0.007571573,-0.03143913,2.4004536,0.0,0.0,0.0
88661.406194,0.0027732512,-0.058622964,4.8085566,0.0054274043,-0.035373952,2.7430766,0.0,0.0,0.0
88661.406194,0.0027291197,-0.054934658,4.55556,0.0054274043,-0.035373952,2.7430766,0.0,0.0,0.0
88661.426447,0.0027291197,-0.054934658,4.55556,0.0058471025,-0.03182238,2.6246898,0.0,0.0,0.0
88661.426447,0.0018923136,-0.058034234,4.809005,0.0058471025,-0.03182238,2.6246898,0.0,0.0,0.0
88661.447038,0.0018923136,-0.058034234,4.809005,0.005752237,-0.026895259,2.5069587,0.0,0.0,0.0
88661.447038,0.0016830156,-0.05402733,4.579315,0.005752237,-0.026895259,2.5069587,0.0,0.0,0.0
88661.467428,0.0016830156,-0.05402733,4.579315,0.004732228,-0.033719826,2.799904,0.0,0.0,0.0
88661.467428,0.0017226157,-0.051115394,4.3704004,0.004732228,-0.033719826,2.799904,0.0,0.0,0.0
88661.488045,0.0017226157,-0.051115394,4.3704004,0.00030147718,-0.035484117,3.1987991,0.0,0.0,0.0
88661.488045,0.002237983,-0.04837195,4.1799226,0.00030147718,-0.035484117,3.1987991,0.0,0.0,0.0
88661.508261,0.002237983,-0.04837195,4.1799226,-0.004027462,-0.03923634,3.5997498,0.0,0.0,0.0
88661.508261,0.002237983,-0.04837195,4.1799226,-0.004027462,-0.03923634,3.5997498,-0.0070251864,0.0061632656,-0.40598512,nacc
88661.508261,0.0029977243,-0.045399606,4.005735,-0.004027462,-0.03923634,3.5997498,-0.0070251864,0.0061632656,-0.40598512
88661.528724,0.0029977243,-0.045399606,4.005735,-0.004027462,-0.03923634,3.5997498,-0.009819054,-0.0030787662,0.39178705,nacc
88661.528724,0.0029977243,-0.045399606,4.005735,-0.0011406266,-0.039813053,3.595947,-0.009819054,-0.0030787662,0.39178705
88661.528724,0.0029977243,-0.045399606,4.005735,-0.0011406266,-0.039813053,3.595947,-0.0047596036,-0.00072710216,-0.0058846474,nacc
88661.528724,0.0053156074,-0.03414614,3.2032077,-0.0011406266,-0.039813053,3.595947,-0.0047596036,-0.00072710216,-0.0058846474
88661.549162,0.0053156074,-0.03414614,3.2032077,-0.0011406266,-0.039813053,3.595947,-0.009839088,0.0008770861,0.39365292,nacc
88661.549162,0.0053156074,-0.03414614,3.2032077,-0.0027380763,-0.029116323,3.1955729,-0.009839088,0.0008770861,0.39365292
88661.549162,0.0053156074,-0.03414614,3.2032077,-0.0027380763,-0.029116323,3.1955729,-0.00817943,0.0052381363,-0.008020639,nacc
88661.549162,0.005441354,-0.03435446,3.203593,-0.0027380763,-0.029116323,3.1955729,-0.00817943,0.0052381363,-0.008020639
88661.56969,0.005441354,-0.03435446,3.203593,-0.0027380763,-0.029116323,3.1955729,-0.008940192,-0.007882604,0.79336476,nacc
88661.56969,0.005441354,-0.03435446,3.203593,0.0034228067,-0.034771435,3.1948433,-0.008940192,-0.007882604,0.79336476
88661.56969,0.005441354,-0.03435446,3.203593,0.0034228067,-0.034771435,3.1948433,-0.008753246,0.011522679,-0.4078548,nacc
88661.56969,0.010174642,-0.03142182,2.8025608,0.0034228067,-0.034771435,3.1948433,-0.008753246,0.011522679,-0.4078548
88661.590109,0.010174642,-0.03142182,2.8025608,0.0034228067,-0.034771435,3.1948433,-0.017275233,0.003102146,0.39591146,nacc
88661.590109,0.010174642,-0.03142182,2.8025608,-0.0052685738,-0.024550265,2.7973392,-0.017275233,0.003102146,0.39591146
88661.590109,0.010174642,-0.03142182,2.8025608,-0.0052685738,-0.024550265,2.7973392,-0.014823361,0.0074371975,-0.0054028034,nacc
88661.590109,0.009554788,-0.031987462,2.802742,-0.0052685738,-0.024550265,2.7973392,-0.014823361,0.0074371975,-0.0054028034
88661.610593,0.009554788,-0.031987462,2.802742,-0.0052685738,-0.024550265,2.7973392,-0.011433253,0.011336029,-0.008909941,nacc
88661.610593,0.009554788,-0.031987462,2.802742,0.00038653705,-0.019712271,2.7975428,-0.011433253,0.011336029,-0.008909941
88661.610593,0.009554788,-0.031987462,2.802742,0.00038653705,-0.019712271,2.7975428,-0.0066672335,0.010337934,-0.41040683,nacc
88661.610593,0.008190441,-0.028862627,2.8059275,0.00038653705,-0.019712271,2.7975428,-0.0066672335,0.010337934,-0.41040683
88661.630972,0.008190441,-0.028862627,2.8059275,0.00038653705,-0.019712271,2.7975428,-0.008487576,0.0033876859,0.39135027,nacc
88661.630972,0.008190441,-0.028862627,2.8059275,0.0006410648,-0.020814786,2.7963188,-0.008487576,0.0033876859,0.39135027
88661.630972,0.008190441,-0.028862627,2.8059275,0.0006410648,-0.020814786,2.7963188,-0.005646001,0.010231888,-0.41058445,nacc
88661.630972,0.0073219254,-0.02845115,2.8060033,0.0006410648,-0.020814786,2.7963188,-0.005646001,0.010231888,-0.41058445
88661.651696,0.0073219254,-0.02845115,2.8060033,0.0006410648,-0.020814786,2.7963188,-0.009420623,-0.0007717889,0.39180803,nacc
88661.651696,0.0073219254,-0.02845115,2.8060033,-0.00034288908,-0.024668828,2.7967255,-0.009420623,-0.0007717889,0.39180803
88661.651696,0.0073219254,-0.02845115,2.8060033,-0.00034288908,-0.024668828,2.7967255,-0.0070288815,0.0031054914,-0.009157658,nacc
88661.651696,0.0066859922,-0.027774319,2.8058832,-0.00034288908,-0.024668828,2.7967255,-0.0070288815,0.0031054914,-0.009157658
88661.671912,0.0066859922,-0.027774319,2.8058832,-0.00034288908,-0.024668828,2.7967255,-0.007418561,0.0015015583,-0.0063738823,nacc
88661.671912,0.0066859922,-0.027774319,2.8058832,0.0014555521,-0.022344576,2.3983908,-0.007418561,0.0015015583,-0.0063738823
88661.671912,0.0066859922,-0.027774319,2.8058832,0.0014555521,-0.022344576,2.3983908,-0.0053344727,0.005966481,-0.407382,nacc
88661.671912,0.0067900247,-0.028311057,2.8057728,0.0014555521,-0.022344576,2.3983908,-0.0053344727,0.005966481,-0.407382
88661.692378,0.0067900247,-0.028311057,2.8057728,0.0014555521,-0.022344576,2.3983908,-0.0018143561,0.005626876,-0.0039823055,nacc
88661.692378,0.0067900247,-0.028311057,2.8057728,0.007823339,-0.018422881,2.4007826,-0.0018143561,0.005626876,-0.0039823055
88661.692378,0.0067900247,-0.028311057,2.8057728,0.007823339,-0.018422881,2.4007826,-0.0052606883,0.018429711,-0.8107202,nacc
88661.692378,0.0071067326,-0.02882233,2.8057992,0.007823339,-0.018422881,2.4007826,-0.0052606883,0.018429711,-0.8107202
88661.712828,0.0071067326,-0.02882233,2.8057992,0.007823339,-0.018422881,2.4007826,-0.004141232,0.004996633,-0.0065608025,nacc
88661.712828,0.0071067326,-0.02882233,2.8057992,0.0043256376,-0.02047848,2.3986619,-0.004141232,0.004996633,-0.0065608025
88661.712828,0.0071067326,-0.02882233,2.8057992,0.0043256376,-0.02047848,2.3986619,-0.0041249,0.012746713,-0.41007602,nacc
88661.712828,0.005767323,-0.023852007,2.4050024,0.0043256376,-0.02047848,2.3986619,-0.0041249,0.012746713,-0.41007602
88661.733538,0.005767323,-0.023852007,2.4050024,0.0043256376,-0.02047848,2.3986619,-0.008829039,0.0027293582,0.39336228,nacc
88661.733538,0.005767323,-0.023852007,2.4050024,-0.00032548545,-0.018270165,2.397254,-0.008829039,0.0027293582,0.39336228
88661.733538,0.005767323,-0.023852007,2.4050024,-0.00032548545,-0.018270165,2.397254,-0.004889101,0.015148924,-0.41028666,nacc
88661.733538,0.0062769963,-0.025694259,2.405162,-0.00032548545,-0.018270165,2.397254,-0.004889101,0.015148924,-0.41028666
88661.753826,0.0062769963,-0.025694259,2.405162,-0.00032548545,-0.018270165,2.397254,-0.015739381,0.00030329823,-0.015535831,nacc
88661.753826,0.0062769963,-0.025694259,2.405162,-0.005061668,-0.02358306,2.3931262,-0.015739381,0.00030329823,-0.015535831
88661.753826,0.0062769963,-0.025694259,2.405162,-0.005061668,-0.02358306,2.3931262,-0.0076604667,0.011726785,-0.41227567,nacc
88661.753826,0.008641119,-0.02283208,2.4087293,-0.005061668,-0.02358306,2.3931262,-0.0076604667,0.011726785,-0.41227567
88661.774194,0.008641119,-0.02283208,2.4087293,-0.005061668,-0.02358306,2.3931262,-0.009060746,-0.00013429485,0.3876648,nacc
88661.774194,0.008641119,-0.02283208,2.4087293,0.0016759248,-0.01821926,2.3952324,-0.009060746,-0.00013429485,0.3876648
88661.774194,0.008641119,-0.02283208,2.4087293,0.0016759248,-0.01821926,2.3952324,-0.008258846,0.012075479,-0.41282737,nacc
88661.774194,0.008934065,-0.023078963,2.4088736,0.0016759248,-0.01821926,2.3952324,-0.008258846,0.012075479,-0.41282737
88661.79474,0.008934065,-0.023078963,2.4088736,0.0016759248,-0.01821926,2.3952324,-0.013762774,0.0007846374,0.38837743,nacc
88661.79474,0.008934065,-0.023078963,2.4088736,-0.002822483,-0.016893089,2.3956907,-0.013762774,0.0007846374,0.38837743
88661.79474,0.008934065,-0.023078963,2.4088736,-0.002822483,-0.016893089,2.3956907,-0.012144114,0.00041243993,0.38818884,nacc
88661.79474,0.009321631,-0.017305529,2.0075018,-0.002822483,-0.016893089,2.3956907,-0.012144114,0.00041243993,0.38818884
88661.815018,0.009321631,-0.017305529,2.0075018,-0.002822483,-0.016893089,2.3956907,-0.0035203886,0.0100542735,-0.0065159798,nacc
88661.815018,0.009321631,-0.017305529,2.0075018,0.0058012423,-0.0072512547,2.0009859,-0.0035203886,0.0100542735,-0.0065159798
88661.815018,0.009321631,-0.017305529,2.0075018,0.0058012423,-0.0072512547,2.0009859,-0.0025184052,0.014960883,-0.40846348,nacc
88661.815018,0.007912404,-0.022364855,2.409144,0.0058012423,-0.0072512547,2.0009859,-0.0025184052,0.014960883,-0.40846348
88661.835489,0.007912404,-0.022364855,2.409144,0.0058012423,-0.0072512547,2.0009859,-0.010292789,0.006963818,0.39300895,nacc
88661.835489,0.007912404,-0.022364855,2.409144,0.00038653798,-0.006996727,1.9961478,-0.010292789,0.006963818,0.39300895
88661.835489,0.007912404,-0.022364855,2.409144,0.00038653798,-0.006996727,1.9961478,-0.009118215,0.0070820055,0.39283037,nacc
88661.835489,0.009504753,-0.014078733,1.6033174,0.00038653798,-0.006996727,1.9961478,-0.009118215,0.0070820055,0.39283037
88661.855922,0.009504753,-0.014078733,1.6033174,0.00038653798,-0.006996727,1.9961478,-0.0066393316,-0.0065574283,0.79525757,nacc
88661.855922,0.009504753,-0.014078733,1.6033174,0.0049867555,-0.0153150195,1.9972337,-0.0066393316,-0.0065574283,0.79525757
88661.855922,0.009504753,-0.014078733,1.6033174,0.0049867555,-0.0153150195,1.9972337,-0.004927344,0.010560453,-0.0069636106,nacc
88661.855922,0.009846443,-0.01416129,1.6029754,0.0049867555,-0.0153150195,1.9972337,-0.004927344,0.010560453,-0.0069636106
88661.876466,0.009846443,-0.01416129,1.6029754,0.0049867555,-0.0153150195,1.9972337,-0.00879346,-0.0016658995,0.39318788,nacc
88661.876466,0.009846443,-0.01416129,1.6029754,0.0026290065,-0.010678018,1.5951132,-0.00879346,-0.0016658995,0.39318788
88661.876466,0.009846443,-0.01416129,1.6029754,0.0026290065,-0.010678018,1.5951132,-0.0075070485,0.0043443497,-0.007866502,nacc
88661.876466,0.010136055,-0.015022368,1.6029797,0.0026290065,-0.010678018,1.5951132,-0.0075070485,0.0043443497,-0.007866502
88661.896872,0.010136055,-0.015022368,1.6029797,0.0026290065,-0.010678018,1.5951132,-0.009234857,-0.008254059,0.7911496,nacc
88661.896872,0.010136055,-0.015022368,1.6029797,0.0016276487,-0.018029759,1.9922096,-0.009234857,-0.008254059,0.7911496
88661.896872,0.010136055,-0.015022368,1.6029797,0.0016276487,-0.018029759,1.9922096,-0.006595472,-0.0029136837,0.39114034,nacc
88661.896872,0.01029284,-0.010566764,1.2011534,0.0016276487,-0.018029759,1.9922096,-0.006595472,-0.0029136837,0.39114034
88661.917264,0.01029284,-0.010566764,1.2011534,0.0016276487,-0.018029759,1.9922096,-0.006674953,-0.0144249275,1.1948628,nacc
88661.917264,0.01029284,-0.010566764,1.2011534,0.0060892715,-0.018640624,1.994927,-0.006674953,-0.0144249275,1.1948628
88661.917264,0.01029284,-0.010566764,1.2011534,0.0060892715,-0.018640624,1.994927,-0.005160394,-0.008127729,0.79329085,nacc
88661.917264,0.010791517,-0.009851125,1.2013816,0.0060892715,-0.018640624,1.994927,-0.005160394,-0.008127729,0.79329085
88661.937755,0.010791517,-0.009851125,1.2013816,0.0060892715,-0.018640624,1.994927,-0.008252371,-0.01734592,0.78725326,nacc
88661.937755,0.010791517,-0.009851125,1.2013816,0.0047154767,-0.021154374,1.5873173,-0.008252371,-0.01734592,0.78725326
88661.937755,0.010791517,-0.009851125,1.2013816,0.0047154767,-0.021154374,1.5873173,-0.0045026797,-0.0055370536,0.38749743,nacc
88661.937755,0.011559154,-0.010084053,1.2014514,0.0047154767,-0.021154374,1.5873173,-0.0045026797,-0.0055370536,0.38749743
88661.963293,0.011559154,-0.010084053,1.2014514,0.0047154767,-0.021154374,1.5873173,-0.0018369593,-0.0066015692,0.7955405,nacc
88661.963293,0.011559154,-0.010084053,1.2014514,0.011029077,-0.010868172,1.5961137,-0.0018369593,-0.0066015692,0.7955405
88661.963293,0.011559154,-0.010084053,1.2014514,0.011029077,-0.010868172,1.5961137,-0.0009660786,0.00025575794,0.39383662,nacc
88661.963293,0.011944249,-0.010360348,1.2016662,0.011029077,-0.010868172,1.5961137,-0.0009660786,0.00025575794,0.39383662
88661.983824,0.011944249,-0.010360348,1.2016662,0.011029077,-0.010868172,1.5961137,0.0038657729,-0.010831327,0.7965957,nacc
88661.983824,0.011944249,-0.010360348,1.2016662,0.014354027,-0.0118038505,1.1911256,0.0038657729,-0.010831327,0.7965957
88661.983824,0.011944249,-0.010360348,1.2016662,0.014354027,-0.0118038505,1.1911256,-0.00039448868,-0.0066889445,0.40085953,nacc
88661.983824,0.009215249,-0.0075268424,0.79579943,0.014354027,-0.0118038505,1.1911256,-0.00039448868,-0.0066889445,0.40085953
88662.004221,0.009215249,-0.0075268424,0.79579943,0.014354027,-0.0118038505,1.1911256,-0.006776765,-0.017317677,1.2029268,nacc
88662.004221,0.009215249,-0.0075268424,0.79579943,0.003406056,-0.018595632,1.5975585,-0.006776765,-0.017317677,1.2029268
88662.004221,0.009215249,-0.0075268424,0.79579943,0.003406056,-0.018595632,1.5975585,-0.0004051132,-0.0066553233,0.40129167,nacc
88662.004221,0.009124063,-0.008222234,0.795978,0.003406056,-0.018595632,1.5975585,-0.0004051132,-0.0066553233,0.40129167
88662.02478,0.009124063,-0.008222234,0.795978,0.003406056,-0.018595632,1.5975585,-0.0067426125,-0.016449654,1.2054747,nacc
88662.02478,0.009124063,-0.008222234,0.795978,0.0029820614,-0.018491192,1.6000047,-0.0067426125,-0.016449654,1.2054747
88662.02478,0.009124063,-0.008222234,0.795978,0.0029820614,-0.018491192,1.6000047,-0.0058916984,-0.009606162,0.80389977,nacc
88662.02478,0.00887376,-0.00888503,0.7961049,0.0029820614,-0.018491192,1.6000047,-0.0058916984,-0.009606162,0.80389977
88662.045111,0.00887376,-0.00888503,0.7961049,0.0029820614,-0.018491192,1.6000047,-0.006149149,-0.01877916,1.2010099,nacc
88662.045111,0.00887376,-0.00888503,0.7961049,0.0042372947,-0.023365969,1.5964562,-0.006149149,-0.01877916,1.2010099
88662.045111,0.00887376,-0.00888503,0.7961049,0.0042372947,-0.023365969,1.5964562,1.6944483e-05,-0.00561696,0.4010831,nacc
88662.045111,0.008498385,-0.010176894,0.7963903,0.0042372947,-0.023365969,1.5964562,1.6944483e-05,-0.00561696,0.4010831
88662.065554,0.008498385,-0.010176894,0.7963903,0.0042372947,-0.023365969,1.5964562,0.0011316538,-0.0125982445,1.197563,nacc
88662.065554,0.008498385,-0.010176894,0.7963903,0.010601799,-0.017235959,1.5929585,0.0011316538,-0.0125982445,1.197563
88662.065554,0.008498385,-0.010176894,0.7963903,0.010601799,-0.017235959,1.5929585,0.00067645125,-0.0066368086,0.40005898,nacc
88662.065554,0.008347932,-0.010276965,0.7964473,0.010601799,-0.017235959,1.5929585,0.00067645125,-0.0066368086,0.40005898
88662.085998,0.008347932,-0.010276965,0.7964473,0.010601799,-0.017235959,1.5929585,-0.007505538,-0.010393211,0.7980035,nacc
88662.085998,0.008347932,-0.010276965,0.7964473,0.0030329681,-0.020716907,1.5971855,-0.007505538,-0.010393211,0.7980035
88662.085998,0.008347932,-0.010276965,0.7964473,0.0030329681,-0.020716907,1.5971855,-0.00095402636,-0.0015501212,-0.0028272867,nacc
88662.085998,0.009622072,-0.016330855,1.1998935,0.0030329681,-0.020716907,1.5971855,-0.00095402636,-0.0015501212,-0.0028272867
88662.106471,0.009622072,-0.016330855,1.1998935,0.0030329681,-0.020716907,1.5971855,-0.0015482791,-0.017504545,0.80409676,nacc
88662.106471,0.009622072,-0.016330855,1.1998935,0.009092039,-0.027013754,1.6022097,-0.0015482791,-0.017504545,0.80409676
88662.106471,0.009622072,-0.016330855,1.1998935,0.009092039,-0.027013754,1.6022097,-6.285496e-05,-0.011348143,0.40275264,nacc
88662.106471,0.009154894,-0.015665611,1.199457,0.009092039,-0.027013754,1.6022097,-6.285496e-05,-0.011348143,0.40275264
88662.126935,0.009154894,-0.015665611,1.199457,0.009092039,-0.027013754,1.6022097,-0.00015708152,-0.014654494,0.79557496,nacc
88662.126935,0.009154894,-0.015665611,1.199457,0.010483238,-0.02441823,1.5939933,-0.00015708152,-0.014654494,0.79557496
88662.126935,0.009154894,-0.015665611,1.199457,0.010483238,-0.02441823,1.5939933,-0.001287437,0.004349637,-0.39942044,nacc
88662.126935,0.009463832,-0.015896982,1.1996614,0.010483238,-0.02441823,1.5939933,-0.001287437,0.004349637,-0.39942044
88662.147378,0.009463832,-0.015896982,1.1996614,0.010483238,-0.02441823,1.5939933,-0.006131092,-0.008727451,0.39873224,nacc
88662.147378,0.009463832,-0.015896982,1.1996614,0.0038983608,-0.020018352,1.1982704,-0.006131092,-0.008727451,0.39873224
88662.147378,0.009463832,-0.015896982,1.1996614,0.0038983608,-0.020018352,1.1982704,-0.00014011469,0.005740091,-0.40068054,nacc
88662.147378,0.008774659,-0.016982004,1.2004633,0.0038983608,-0.020018352,1.1982704,-0.00014011469,0.005740091,-0.40068054
88662.16789,0.008774659,-0.016982004,1.2004633,0.0038983608,-0.020018352,1.1982704,-0.0009709168,-0.0030923737,0.39968538,nacc
88662.16789,0.008774659,-0.016982004,1.2004633,0.009058538,-0.01423056,1.1997836,-0.0009709168,-0.0030923737,0.39968538
88662.16789,0.008774659,-0.016982004,1.2004633,0.009058538,-0.01423056,1.1997836,0.00033253804,0.00846056,-0.7995715,nacc
88662.16789,0.009303364,-0.016713826,1.201186,0.009058538,-0.01423056,1.1997836,0.00033253804,0.00846056,-0.7995715
88662.188272,0.009303364,-0.016713826,1.201186,0.009058538,-0.01423056,1.1997836,-0.0001564296,-0.0022076014,0.0019067526,nacc
88662.188272,0.009303364,-0.016713826,1.201186,0.010789323,-0.01309126,0.8025649,-0.0001564296,-0.0022076014,0.0019067526
88662.188272,0.009303364,-0.016713826,1.201186,0.010789323,-0.01309126,0.8025649,0.00045042112,0.00746758,-0.7991196,nacc
88662.188272,0.009440008,-0.016688049,1.2007339,0.010789323,-0.01309126,0.8025649,0.00045042112,0.00746758,-0.7991196
88662.208716,0.009440008,-0.016688049,1.2007339,0.010789323,-0.01309126,0.8025649,-0.004858458,-0.008829917,0.0059812665,nacc
88662.208716,0.009440008,-0.016688049,1.2007339,0.0058836727,-0.01884818,0.806283,-0.004858458,-0.008829917,0.0059812665
88662.208716,0.009440008,-0.016688049,1.2007339,0.0058836727,-0.01884818,0.806283,0.0041998513,0.015233285,-1.2036189,nacc
88662.208716,0.009086468,-0.016047772,1.2005645,0.0058836727,-0.01884818,0.806283,0.0041998513,0.015233285,-1.2036189
88662.22967,0.009086468,-0.016047772,1.2005645,0.0058836727,-0.01884818,0.806283,-0.000495363,0.005418047,-0.40580136,nacc
88662.22967,0.009086468,-0.016047772,1.2005645,0.009737713,-0.0058728536,0.39429677,-0.000495363,0.005418047,-0.40580136
88662.22967,0.009086468,-0.016047772,1.2005645,0.009737713,-0.0058728536,0.39429677,0.001226495,0.010985529,-0.80598044,nacc
88662.22967,0.008511218,-0.016858382,1.2002772,0.009737713,-0.0058728536,0.39429677,0.001226495,0.010985529,-0.80598044
88662.24964,0.008511218,-0.016858382,1.2002772,0.009737713,-0.0058728536,0.39429677,-0.004230188,0.01428218,-0.80821073,nacc
88662.24964,0.008511218,-0.016858382,1.2002772,0.009161002,-0.0064837188,0.3963524,-0.004230188,0.01428218,-0.80821073
88662.24964,0.008511218,-0.016858382,1.2002772,0.009161002,-0.0064837188,0.3963524,0.0019201422,0.02414538,-1.6079149,nacc
88662.24964,0.011620704,-0.026283408,1.6047078,0.009161002,-0.0064837188,0.3963524,0.0019201422,0.02414538,-1.6079149
88662.270092,0.011620704,-0.026283408,1.6047078,0.009161002,-0.0064837188,0.3963524,-0.0026836433,0.018305685,-0.7996012,nacc
88662.270092,0.011620704,-0.026283408,1.6047078,0.01101298,-0.0014930085,0.40557286,-0.0026836433,0.018305685,-0.7996012
88662.270092,0.011620704,-0.026283408,1.6047078,0.01101298,-0.0014930085,0.40557286,0.0009761257,0.023811838,-1.6092812,nacc
88662.270092,0.012157478,-0.024931757,1.605616,0.01101298,-0.0014930085,0.40557286,0.0009761257,0.023811838,-1.6092812
88662.290594,0.012157478,-0.024931757,1.605616,0.01101298,-0.0014930085,0.40557286,-0.002581831,0.013247315,-0.8023863,nacc
88662.290594,0.012157478,-0.024931757,1.605616,0.011369318,-0.0063986587,0.40278783,-0.002581831,0.013247315,-0.8023863
88662.290594,0.012157478,-0.024931757,1.605616,0.011369318,-0.0063986587,0.40278783,-0.00047033187,0.018804548,-1.208472,nacc
88662.290594,0.01411299,-0.0202299,1.2043996,0.011369318,-0.0063986587,0.40278783,-0.00047033187,0.018804548,-1.208472
88662.310996,0.01411299,-0.0202299,1.2043996,0.011369318,-0.0063986587,0.40278783,-0.004361787,0.006112607,-0.40669015,nacc
88662.310996,0.01411299,-0.0202299,1.2043996,0.011827468,-0.009048372,0.39718363,-0.004361787,0.006112607,-0.40669015
88662.310996,0.01411299,-0.0202299,1.2043996,0.011827468,-0.009048372,0.39718363,0.0009761397,0.013459884,-0.80422395,nacc
88662.310996,0.012666519,-0.015139763,0.80055875,0.011827468,-0.009048372,0.39718363,0.0009761397,0.013459884,-0.80422395
88662.331446,0.012666519,-0.015139763,0.80055875,0.011827468,-0.009048372,0.39718363,-0.005128653,0.0097797755,-0.0042271614,nacc
88662.331446,0.012666519,-0.015139763,0.80055875,0.009330468,0.00061021233,0.3961146,-0.005128653,0.0097797755,-0.0042271614
88662.331446,0.012666519,-0.015139763,0.80055875,0.009330468,0.00061021233,0.3961146,3.0521303e-05,0.012980564,-0.8057458,nacc
88662.331446,0.012644932,-0.0147622535,0.80136794,0.009330468,0.00061021233,0.3961146,3.0521303e-05,0.012980564,-0.8057458
88662.35195,0.012644932,-0.0147622535,0.80136794,0.009330468,0.00061021233,0.3961146,-0.00061349757,0.0027709045,-0.00022041798,nacc
88662.35195,0.012644932,-0.0147622535,0.80136794,0.013947436,-0.006347753,0.40012133,-0.00061349757,0.0027709045,-0.00022041798
88662.35195,0.012644932,-0.0147622535,0.80136794,0.013947436,-0.006347753,0.40012133,-0.00087403227,0.014548165,-0.80557495,nacc
88662.35195,0.012785904,-0.014700881,0.8013498,0.013947436,-0.006347753,0.40012133,-0.00087403227,0.014548165,-0.80557495
88662.372543,0.012785904,-0.014700881,0.8013498,0.013947436,-0.006347753,0.40012133,-0.0059572617,0.0011225482,0.3923069,nacc
88662.372543,0.012785904,-0.014700881,0.8013498,0.00906182,-0.008148825,0.7924959,-0.0059572617,0.0011225482,0.3923069
88662.372543,0.012785904,-0.014700881,0.8013498,0.00906182,-0.008148825,0.7924959,-0.0025892965,0.010774244,-0.41362107,nacc
88662.372543,0.013466309,-0.014271946,0.8013973,0.00906182,-0.008148825,0.7924959,-0.0025892965,0.010774244,-0.41362107
88662.392835,0.013466309,-0.014271946,0.8013973,0.00906182,-0.008148825,0.7924959,-0.0059063546,-0.0008144872,0.39018625,nacc
88662.392835,0.013466309,-0.014271946,0.8013973,0.008807293,-0.009678618,0.7908843,-0.0059063546,-0.0008144872,0.39018625
88662.392835,0.013466309,-0.014271946,0.8013973,0.008807293,-0.009678618,0.7908843,-0.0025228225,0.011589676,-0.41414788,nacc
88662.392835,0.012839875,-0.013916553,0.80182236,0.008807293,-0.009678618,0.7908843,-0.0025228225,0.011589676,-0.41414788
88662.413302,0.012839875,-0.013916553,0.80182236,0.008807293,-0.009678618,0.7908843,-0.0065848753,0.0006134962,0.39066112,nacc
88662.413302,0.012839875,-0.013916553,0.80182236,0.0081287725,-0.00763977,0.7913592,-0.0065848753,0.0006134962,0.39066112
88662.413302,0.012839875,-0.013916553,0.80182236,0.0081287725,-0.00763977,0.7913592,-0.002045774,0.009985469,-0.41381913,nacc
88662.413302,0.012973692,-0.013177738,0.8015954,0.0081287725,-0.00763977,0.7913592,-0.002045774,0.009985469,-0.41381913
88662.43377,0.012973692,-0.013177738,0.8015954,0.0081287725,-0.00763977,0.7913592,-0.0038198838,-0.00062498543,0.3907971,nacc
88662.43377,0.012973692,-0.013177738,0.8015954,0.010741048,-0.009183683,0.7909352,-0.0038198838,-0.00062498543,0.3907971
88662.43377,0.012973692,-0.013177738,0.8015954,0.010741048,-0.009183683,0.7909352,-0.0020644413,0.0041893385,-0.010486484,nacc
88662.43377,0.012805489,-0.013373022,0.8014217,0.010741048,-0.009183683,0.7909352,-0.0020644413,0.0041893385,-0.010486484
88662.454171,0.012805489,-0.013373022,0.8014217,0.010741048,-0.009183683,0.7909352,-0.0034300443,-0.0039049434,0.3879779,nacc
88662.454171,0.012805489,-0.013373022,0.8014217,0.012810767,-0.01383809,0.78862506,-0.0034300443,-0.0039049434,0.3879779
88662.454171,0.012805489,-0.013373022,0.8014217,0.012810767,-0.01383809,0.78862506,-0.001077746,0.0008298494,-0.013831854,nacc
88662.454171,0.013888513,-0.014667939,0.8024569,0.012810767,-0.01383809,0.78862506,-0.001077746,0.0008298494,-0.013831854
88662.47466,0.013888513,-0.014667939,0.8024569,0.012810767,-0.01383809,0.78862506,-0.00031153485,0.0030696886,-0.009655535,nacc
88662.47466,0.013888513,-0.014667939,0.8024569,0.013576978,-0.011598251,0.7928014,-0.00031153485,0.0030696886,-0.009655535
88662.47466,0.013888513,-0.014667939,0.8024569,0.013576978,-0.011598251,0.7928014,0.0012087002,0.008192002,-0.41161576,nacc
88662.47466,0.012368278,-0.019790253,1.2044172,0.013576978,-0.011598251,0.7928014,0.0012087002,0.008192002,-0.41161576
88662.495163,0.012368278,-0.019790253,1.2044172,0.013576978,-0.011598251,0.7928014,-0.00065112207,-0.0021922998,0.39151534,nacc
88662.495163,0.012368278,-0.019790253,1.2044172,0.010231993,-0.007334338,0.7894054,-0.00065112207,-0.0021922998,0.39151534
88662.495163,0.012368278,-0.019790253,1.2044172,0.010231993,-0.007334338,0.7894054,0.0005296292,0.007862417,-0.41170576,nacc
88662.495163,0.009532897,-0.01090197,0.79948205,0.010231993,-0.007334338,0.7894054,0.0005296292,0.007862417,-0.41170576
88662.515523,0.009532897,-0.01090197,0.79948205,0.010231993,-0.007334338,0.7894054,-0.007931926,-0.0015981854,0.39392734,nacc
88662.515523,0.009532897,-0.01090197,0.79948205,0.003612961,-0.007911049,0.7910538,-0.007931926,-0.0015981854,0.39392734
88662.515523,0.009532897,-0.01090197,0.79948205,0.003612961,-0.007911049,0.7910538,-0.0008603586,0.010030939,-0.4126001,nacc
88662.515523,0.010210208,-0.011899668,0.7994092,0.003612961,-0.007911049,0.7910538,-0.0008603586,0.010030939,-0.4126001
88662.535993,0.010210208,-0.011899668,0.7994092,0.003612961,-0.007911049,0.7910538,-0.008033738,0.0014554886,0.3940801,nacc
88662.535993,0.010210208,-0.011899668,0.7994092,0.003663867,-0.005570051,0.7910029,-0.008033738,0.0014554886,0.3940801
88662.535993,0.010210208,-0.011899668,0.7994092,0.003663867,-0.005570051,0.7910029,-4.9259514e-05,0.00932953,-0.4127266,nacc
88662.535993,0.010315407,-0.011656407,0.7991794,0.003663867,-0.005570051,0.7910029,-4.9259514e-05,0.00932953,-0.4127266
88662.556412,0.010315407,-0.011656407,0.7991794,0.003663867,-0.005570051,0.7910029,-0.0065065725,-0.0069820182,0.38905522,nacc
88662.556412,0.010315407,-0.011656407,0.7991794,0.0049874093,-0.0125313,0.7864871,-0.0065065725,-0.0069820182,0.38905522
88662.556412,0.010315407,-0.011656407,0.7991794,0.0049874093,-0.0125313,0.7864871,0.000889699,0.008521688,-0.41462645,nacc
88662.556412,0.010394558,-0.010339511,0.800112,0.0049874093,-0.0125313,0.7864871,0.000889699,0.008521688,-0.41462645
88662.576958,0.010394558,-0.010339511,0.800112,0.0049874093,-0.0125313,0.7864871,-0.002432161,0.0022384508,-0.004914224,nacc
88662.576958,0.010394558,-0.010339511,0.800112,0.009723592,-0.0025981546,0.39272133,-0.002432161,0.0022384508,-0.004914224
88662.576958,0.010394558,-0.010339511,0.800112,0.009723592,-0.0025981546,0.39272133,0.0018469542,0.012195407,-0.80680877,nacc
88662.576958,0.010624878,-0.010362811,0.80024195,0.009723592,-0.0025981546,0.39272133,0.0018469542,0.012195407,-0.80680877
88662.59987,0.010624878,-0.010362811,0.80024195,0.009723592,-0.0025981546,0.39272133,-0.004996813,0.0014072123,-0.007275194,nacc
88662.59987,0.010624878,-0.010362811,0.80024195,0.006904412,-0.0028185274,0.39046216,-0.004996813,0.0014072123,-0.007275194
88662.59987,0.010624878,-0.010362811,0.80024195,0.006904412,-0.0028185274,0.39046216,0.0022628475,0.012416949,-0.80706143,nacc
88662.59987,0.010259891,-0.010075298,0.8001383,0.006904412,-0.0028185274,0.39046216,0.0022628475,0.012416949,-0.80706143
88662.620413,0.010259891,-0.010075298,0.8001383,0.006904412,-0.0028185274,0.39046216,-0.0012954902,0.009010198,-0.008513689,nacc
88662.620413,0.010259891,-0.010075298,0.8001383,0.010402112,0.004631742,0.38932547,-0.0012954902,0.009010198,-0.008513689
88662.620413,0.010259891,-0.010075298,0.8001383,0.010402112,0.004631742,0.38932547,0.002488982,0.011874573,-0.8070297,nacc
88662.620413,0.00998285,-0.009736545,0.800412,0.010402112,0.004631742,0.38932547,0.002488982,0.011874573,-0.8070297
88662.640829,0.00998285,-0.009736545,0.800412,0.010402112,0.004631742,0.38932547,-0.0017536385,0.009417441,0.0006867349,nacc
88662.640829,0.00998285,-0.009736545,0.800412,0.010300303,0.0048353635,0.39852592,-0.0017536385,0.009417441,0.0006867349
88662.640829,0.00998285,-0.009736545,0.800412,0.010300303,0.0048353635,0.39852592,0.00038531702,0.015056475,-0.40216634,nacc
88662.640829,0.009914986,-0.010221112,0.80069226,0.010300303,0.0048353635,0.39852592,0.00038531702,0.015056475,-0.40216634
88662.661388,0.009914986,-0.010221112,0.80069226,0.010300303,0.0048353635,0.39852592,-0.0012278343,0.0042914194,-0.013829887,nacc
88662.661388,0.009914986,-0.010221112,0.80069226,0.010826107,1.477357e-05,0.38487467,-0.0012278343,0.0042914194,-0.013829887
88662.661388,0.009914986,-0.010221112,0.80069226,0.010826107,1.477357e-05,0.38487467,0.0010083606,0.009517038,-0.41643628,nacc
88662.661388,0.0098177465,-0.009502265,0.80131096,0.010826107,1.477357e-05,0.38487467,0.0010083606,0.009517038,-0.41643628
88662.6817,0.0098177465,-0.009502265,0.80131096,0.010826107,1.477357e-05,0.38487467,-0.0040778858,0.001865362,0.3852546,nacc
88662.6817,0.0098177465,-0.009502265,0.80131096,0.007670623,-0.0018004184,0.7842137,-0.0040778858,0.001865362,0.3852546
88662.6817,0.0098177465,-0.009502265,0.80131096,0.007670623,-0.0018004184,0.7842137,0.0012900466,0.0086154,-0.41608793,nacc
88662.6817,0.009128816,-0.0083460985,0.80111533,0.007670623,-0.0018004184,0.7842137,0.0012900466,0.0086154,-0.41608793
88662.702265,0.009128816,-0.0083460985,0.80111533,0.007670623,-0.0018004184,0.7842137,0.0009604478,1.3385434e-05,0.38065115,nacc
88662.702265,0.009128816,-0.0083460985,0.80111533,0.01255624,-0.003957828,0.7799666,0.0009604478,1.3385434e-05,0.38065115
88662.702265,0.009128816,-0.0083460985,0.80111533,0.01255624,-0.003957828,0.7799666,0.0010363134,0.007402996,-0.41614515,nacc
88662.702265,0.009637078,-0.007846371,0.80101985,0.01255624,-0.003957828,0.7799666,0.0010363134,0.007402996,-0.41614515
88662.722579,0.009637078,-0.007846371,0.80101985,0.01255624,-0.003957828,0.7799666,0.000298677,-0.0047227982,0.3905675,nacc
88662.722579,0.009637078,-0.007846371,0.80101985,0.012301712,-0.008337673,0.78906846,0.000298677,-0.0047227982,0.3905675
88662.722579,0.009637078,-0.007846371,0.80101985,0.012301712,-0.008337673,0.78906846,0.0021558339,-4.9042515e-05,-0.011184931,nacc
88662.722579,0.010145878,-0.00828863,0.8002534,0.012301712,-0.008337673,0.78906846,0.0021558339,-4.9042515e-05,-0.011184931
88662.743095,0.010145878,-0.00828863,0.8002534,0.012301712,-0.008337673,0.78906846,-0.0020590723,-0.0008520074,0.38325003,nacc
88662.743095,0.010145878,-0.00828863,0.8002534,0.009638532,-0.003856017,0.7817001,-0.0020590723,-0.0008520074,0.38325003
88662.743095,0.010145878,-0.00828863,0.8002534,0.009638532,-0.003856017,0.7817001,0.0005122144,0.003803375,-0.017908871,nacc
88662.743095,0.009126318,-0.007659392,0.79960895,0.009638532,-0.003856017,0.7817001,0.0005122144,0.003803375,-0.017908871
88662.763568,0.009126318,-0.007659392,0.79960895,0.009638532,-0.003856017,0.7817001,-0.0001495555,0.00280267,-0.01763767,nacc
88662.763568,0.009126318,-0.007659392,0.79960895,0.008976762,-0.004856722,0.7819713,-0.0001495555,0.00280267,-0.01763767
88662.763568,0.009126318,-0.007659392,0.79960895,0.008976762,-0.004856722,0.7819713,0.003797532,0.013107671,-0.8156582,nacc
88662.763568,0.007028576,-0.012583843,1.2000748,0.008976762,-0.004856722,0.7819713,0.003797532,0.013107671,-0.8156582
88662.784515,0.007028576,-0.012583843,1.2000748,0.008976762,-0.004856722,0.7819713,0.00320955,0.0029553864,-0.012816429,nacc
88662.784515,0.007028576,-0.012583843,1.2000748,0.011674096,-0.004449479,0.78567266,0.00320955,0.0029553864,-0.012816429
88662.784515,0.007028576,-0.012583843,1.2000748,0.011674096,-0.004449479,0.78567266,0.004789446,0.01340308,-0.81389165,nacc
88662.784515,0.0062911888,-0.01201386,1.1992245,0.011674096,-0.004449479,0.78567266,0.004789446,0.01340308,-0.81389165
88662.804454,0.0062911888,-0.01201386,1.1992245,0.011674096,-0.004449479,0.78567266,0.0025310293,0.0035294667,-0.015601456,nacc
88662.804454,0.0062911888,-0.01201386,1.1992245,0.0110973865,-0.0047916956,0.7828367,0.0025310293,0.0035294667,-0.015601456
88662.804454,0.0062911888,-0.01201386,1.1992245,0.0110973865,-0.0047916956,0.7828367,0.0040300856,0.015306493,-0.8130065,nacc
88662.804454,0.0065414947,-0.013102786,1.198543,0.0110973865,-0.0047916956,0.7828367,0.0040300856,0.015306493,-0.8130065
88662.824907,0.0065414947,-0.013102786,1.198543,0.0110973865,-0.0047916956,0.7828367,0.0015812288,0.008147088,-0.011391163,nacc
88662.824907,0.0065414947,-0.013102786,1.198543,0.009333099,0.00018226355,0.78643614,0.0015812288,0.008147088,-0.011391163
88662.824907,0.0065414947,-0.013102786,1.198543,0.009333099,0.00018226355,0.78643614,0.0035453914,0.012664222,-0.4119509,nacc
88662.824907,0.005787708,-0.012481959,1.198387,0.009333099,0.00018226355,0.78643614,0.0035453914,0.012664222,-0.4119509
88662.847986,0.005787708,-0.012481959,1.198387,0.009333099,0.00018226355,0.78643614,0.0018357555,0.0069086067,-0.00804621,nacc
88662.847986,0.005787708,-0.012481959,1.198387,0.009078572,-0.0015652721,0.7895775,0.0018357555,0.0069086067,-0.00804621
88662.847986,0.005787708,-0.012481959,1.198387,0.009078572,-0.0015652721,0.7895775,0.0048792083,0.015082355,-0.81202877,nacc
88662.847986,0.0054887496,-0.012827742,1.197667,0.009078572,-0.0015652721,0.7895775,0.0048792083,0.015082355,-0.81202877
88662.868356,0.0054887496,-0.012827742,1.197667,0.009078572,-0.0015652721,0.7895775,0.0022939048,0.007078073,-0.014837861,nacc
88662.868356,0.0054887496,-0.012827742,1.197667,0.009689437,-0.0014467109,0.78288764,0.0022939048,0.007078073,-0.014837861
88662.868356,0.0054887496,-0.012827742,1.197667,0.009689437,-0.0014467109,0.78288764,0.004629927,0.014350062,-0.8123745,nacc
88662.868356,0.00619618,-0.012909937,1.1978091,0.009689437,-0.0014467109,0.78288764,0.004629927,0.014350062,-0.8123745
88662.888799,0.00619618,-0.012909937,1.1978091,0.009689437,-0.0014467109,0.78288764,0.0050930507,-0.00022276118,-0.015058339,nacc
88662.888799,0.00619618,-0.012909937,1.1978091,0.012437678,-0.009103884,0.78225994,0.0050930507,-0.00022276118,-0.015058339
88662.888799,0.00619618,-0.012909937,1.1978091,0.012437678,-0.009103884,0.78225994,0.0052993502,0.012868024,-0.8113482,nacc
88662.888799,0.0061376225,-0.012547818,1.1970373,0.012437678,-0.009103884,0.78225994,0.0052993502,0.012868024,-0.8113482
88662.909218,0.0061376225,-0.012547818,1.1970373,0.012437678,-0.009103884,0.78225994,0.004329469,0.0053305393,-0.009504974,nacc
88662.909218,0.0061376225,-0.012547818,1.1970373,0.012539488,-0.0033469626,0.78771144,0.004329469,0.0053305393,-0.009504974
88662.909218,0.0061376225,-0.012547818,1.1970373,0.012539488,-0.0033469626,0.78771144,0.005682637,0.009027111,-0.40971977,nacc
88662.909218,0.0068568513,-0.012374074,1.1974312,0.012539488,-0.0033469626,0.78771144,0.005682637,0.009027111,-0.40971977
88662.929709,0.0068568513,-0.012374074,1.1974312,0.012539488,-0.0033469626,0.78771144,0.0007499894,0.0041938676,-0.011204243,nacc
88662.929709,0.0068568513,-0.012374074,1.1974312,0.009519969,-0.003414619,0.78662306,0.0007499894,0.0041938676,-0.011204243
88662.929709,0.0068568513,-0.012374074,1.1974312,0.009519969,-0.003414619,0.78662306,0.00426075,0.013858246,-0.8106874,nacc
88662.929709,0.0074816546,-0.012061782,1.1975983,0.009519969,-0.003414619,0.78662306,0.00426075,0.013858246,-0.8106874
88662.950108,0.0074816546,-0.012061782,1.1975983,0.009519969,-0.003414619,0.78662306,0.0025993343,0.002853576,-0.008639574,nacc
88662.950108,0.0074816546,-0.012061782,1.1975983,0.011012976,-0.0046021943,0.7891877,0.0025993343,0.002853576,-0.008639574
88662.950108,0.0074816546,-0.012061782,1.1975983,0.011012976,-0.0046021943,0.7891877,0.0033870423,0.0077917865,-0.40918288,nacc
88662.950108,0.0091189435,-0.0069116205,0.79573745,0.011012976,-0.0046021943,0.7891877,0.0033870423,0.0077917865,-0.40918288
88662.970621,0.0091189435,-0.0069116205,0.79573745,0.011012976,-0.0046021943,0.7891877,0.0058144582,-0.0026957067,0.38354257,nacc
88662.970621,0.0091189435,-0.0069116205,0.79573745,0.01632587,-0.0047040056,0.77966183,0.0058144582,-0.0026957067,0.38354257
88662.970621,0.0091189435,-0.0069116205,0.79573745,0.01632587,-0.0047040056,0.77966183,0.0066523002,0.0020030965,-0.016232312,nacc
88662.970621,0.00967357,-0.006707102,0.79589415,0.01632587,-0.0047040056,0.77966183,0.0066523002,0.0020030965,-0.016232312
88662.991343,0.00967357,-0.006707102,0.79589415,0.01632587,-0.0047040056,0.77966183,0.0026080692,-0.008076256,0.77753186,nacc
88662.991343,0.00967357,-0.006707102,0.79589415,0.013424914,-0.010644515,1.1733457,0.0026080692,-0.008076256,0.77753186
88662.991343,0.00967357,-0.006707102,0.79589415,0.013424914,-0.010644515,1.1733457,0.0036433488,-0.003166255,0.377607,nacc
88662.991343,0.0097815655,-0.00747826,0.7957387,0.013424914,-0.010644515,1.1733457,0.0036433488,-0.003166255,0.377607
88663.011476,0.0097815655,-0.00747826,0.7957387,0.013424914,-0.010644515,1.1733457,0.003812396,-0.009198807,0.7847985,nacc
88663.011476,0.0097815655,-0.00747826,0.7957387,0.014934674,-0.011767066,1.1811213,0.003812396,-0.009198807,0.7847985
88663.011476,0.0097815655,-0.00747826,0.7957387,0.014934674,-0.011767066,1.1811213,0.0060452493,0.0023861118,-0.01582408,nacc
88663.011476,0.010229717,-0.007039212,0.795893,0.014934674,-0.011767066,1.1811213,0.0060452493,0.0023861118,-0.01582408
88663.031951,0.010229717,-0.007039212,0.795893,0.014934674,-0.011767066,1.1811213,0.00031469483,-0.008265758,0.78643024,nacc
88663.031951,0.010229717,-0.007039212,0.795893,0.011640594,-0.011088544,1.1823968,0.00031469483,-0.008265758,0.78643024
88663.031951,0.010229717,-0.007039212,0.795893,0.011640594,-0.011088544,1.1823968,0.0057381997,0.0026273308,-0.0147817135,nacc
88663.031951,0.010587673,-0.0075349584,0.7952071,0.011640594,-0.011088544,1.1823968,0.0057381997,0.0026273308,-0.0147817135
88663.052366,0.010587673,-0.0075349584,0.7952071,0.011640594,-0.011088544,1.1823968,0.0057461495,-0.0073494604,0.78704107,nacc
88663.052366,0.010587673,-0.0075349584,0.7952071,0.01727567,-0.010375868,1.1831094,0.0057461495,-0.0073494604,0.78704107
88663.052366,0.010587673,-0.0075349584,0.7952071,0.01727567,-0.010375868,1.1831094,0.0058691083,0.0036972607,-0.014666975,nacc
88663.052366,0.010507668,-0.008044928,0.7952959,0.01727567,-0.010375868,1.1831094,0.0058691083,0.0036972607,-0.014666975
88663.072868,0.010507668,-0.008044928,0.7952959,0.01727567,-0.010375868,1.1831094,0.0035920264,-0.0062269103,0.7845782,nacc
88663.072868,0.010507668,-0.008044928,0.7952959,0.013747099,-0.0096096555,1.1802902,0.0035920264,-0.0062269103,0.7845782
88663.072868,0.010507668,-0.008044928,0.7952959,0.013747099,-0.0096096555,1.1802902,0.0064153587,0.0041067326,-0.014602244,nacc
88663.072868,0.009401458,-0.008301684,0.79492575,0.013747099,-0.0096096555,1.1802902,0.0064153587,0.0041067326,-0.014602244
88663.093303,0.009401458,-0.008301684,0.79492575,0.013747099,-0.0096096555,1.1802902,0.0016040849,-0.00094817136,0.7832519,nacc
88663.093303,0.009401458,-0.008301684,0.79492575,0.011962779,-0.0042800116,1.1788112,0.0016040849,-0.00094817136,0.7832519
88663.093303,0.009401458,-0.008301684,0.79492575,0.011962779,-0.0042800116,1.1788112,0.0021052146,0.0042955964,0.3842891,nacc
88663.093303,0.009857564,-0.008575608,0.7945221,0.011962779,-0.0042800116,1.1788112,0.0021052146,0.0042955964,0.3842891
88663.113808,0.009857564,-0.008575608,0.7945221,0.011962779,-0.0042800116,1.1788112,0.006077816,0.0027858368,0.39313656,nacc
88663.113808,0.009857564,-0.008575608,0.7945221,0.01593538,-0.005789771,1.1876587,0.006077816,0.0027858368,0.39313656
88663.113808,0.009857564,-0.008575608,0.7945221,0.01593538,-0.005789771,1.1876587,0.0071974583,0.007790471,-0.41324228,nacc
88663.113808,0.008822981,-0.013258059,1.1938711,0.01593538,-0.005789771,1.1876587,0.0071974583,0.007790471,-0.41324228
88663.134176,0.008822981,-0.013258059,1.1938711,0.01593538,-0.005789771,1.1876587,0.0011045067,-0.00040380098,0.3929838,nacc
88663.134176,0.008822981,-0.013258059,1.1938711,0.011114788,-0.008266733,1.1881677,0.0011045067,-0.00040380098,0.3929838
88663.134176,0.008822981,-0.013258059,1.1938711,0.011114788,-0.008266733,1.1881677,0.001618607,0.004826026,-0.0065779686,nacc
88663.134176,0.009496181,-0.013092759,1.1947457,0.011114788,-0.008266733,1.1881677,0.001618607,0.004826026,-0.0065779686
88663.154627,0.009496181,-0.013092759,1.1947457,0.011114788,-0.008266733,1.1881677,0.002563363,-0.0020863116,-0.0066404343,nacc
88663.154627,0.009496181,-0.013092759,1.1947457,0.013184509,-0.01010196,0.7888997,0.002563363,-0.0020863116,-0.0066404343
88663.154627,0.009496181,-0.013092759,1.1947457,0.013184509,-0.01010196,0.7888997,0.0031529106,0.0035227686,-0.40648788,nacc
88663.154627,0.010031599,-0.013624729,1.1953876,0.013184509,-0.01010196,0.7888997,0.0031529106,0.0035227686,-0.40648788
88663.175131,0.010031599,-0.013624729,1.1953876,0.013184509,-0.01010196,0.7888997,0.01011807,-0.0014754469,-0.010172248,nacc
88663.175131,0.010031599,-0.013624729,1.1953876,0.021400988,-0.0098983385,0.78608054,0.01011807,-0.0014754469,-0.010172248
88663.175131,0.010031599,-0.013624729,1.1953876,0.021400988,-0.0098983385,0.78608054,0.011608531,0.0035765162,-0.40999466,nacc
88663.175131,0.009792457,-0.013474855,1.1960752,0.021400988,-0.0098983385,0.78608054,0.011608531,0.0035765162,-0.40999466
88663.195551,0.009792457,-0.013474855,1.1960752,0.021400988,-0.0098983385,0.78608054,0.0029732352,-0.0016281633,-0.009595633,nacc
88663.195551,0.009792457,-0.013474855,1.1960752,0.013645288,-0.009694717,0.7864027,0.0029732352,-0.0016281633,-0.009595633
88663.195551,0.009792457,-0.013474855,1.1960752,0.013645288,-0.009694717,0.7864027,0.007959373,0.0012486381,-0.4124847,nacc
88663.195551,0.009587577,-0.012504019,1.1956952,0.013645288,-0.009694717,0.7864027,0.007959373,0.0012486381,-0.4124847
88663.21599,0.009587577,-0.012504019,1.1956952,0.013645288,-0.009694717,0.7864027,0.0072988924,-0.011100527,0.38554716,nacc
88663.21599,0.009587577,-0.012504019,1.1956952,0.01802185,-0.018352594,1.1816473,0.0072988924,-0.011100527,0.38554716
88663.21599,0.009587577,-0.012504019,1.1956952,0.01802185,-0.018352594,1.1816473,0.008041876,0.00010841526,-0.41287285,nacc
88663.21599,0.009810506,-0.012381905,1.1960832,0.01802185,-0.018352594,1.1816473,0.008041876,0.00010841526,-0.41287285
88663.23645,0.009810506,-0.012381905,1.1960832,0.01802185,-0.018352594,1.1816473,0.001985998,-0.00972345,0.3868565,nacc
88663.23645,0.009810506,-0.012381905,1.1960832,0.013319821,-0.017637288,1.1829058,0.001985998,-0.00972345,0.3868565
88663.23645,0.009810506,-0.012381905,1.1960832,0.013319821,-0.017637288,1.1829058,0.0059129735,-0.0050093494,-0.011049986,nacc
88663.23645,0.012346652,-0.008231343,0.79476947,0.013319821,-0.017637288,1.1829058,0.0059129735,-0.0050093494,-0.011049986
88663.257543,0.012346652,-0.008231343,0.79476947,0.013319821,-0.017637288,1.1829058,-0.0004834775,-0.010151706,0.7935996,nacc
88663.257543,0.012346652,-0.008231343,0.79476947,0.013218009,-0.01386831,1.188439,-0.0004834775,-0.010151706,0.7935996
88663.257543,0.012346652,-0.008231343,0.79476947,0.013218009,-0.01386831,1.188439,0.005161981,-0.0043193502,-0.011351645,nacc
88663.257543,0.012384967,-0.0091249645,0.7948675,0.013218009,-0.01386831,1.188439,0.005161981,-0.0043193502,-0.011351645
88663.277381,0.012384967,-0.0091249645,0.7948675,0.013218009,-0.01386831,1.188439,0.005355221,-0.013140351,0.79292107,nacc
88663.277381,0.012384967,-0.0091249645,0.7948675,0.018700369,-0.017569631,1.1879133,0.005355221,-0.013140351,0.79292107
88663.277381,0.012384967,-0.0091249645,0.7948675,0.018700369,-0.017569631,1.1879133,0.0069045536,-0.008962527,0.39280832,nacc
88663.277381,0.011795815,-0.008607104,0.795105,0.018700369,-0.017569631,1.1879133,0.0069045536,-0.008962527,0.39280832
88663.297788,0.011795815,-0.008607104,0.795105,0.018700369,-0.017569631,1.1879133,0.00022919849,-0.01622818,0.794278,nacc
88663.297788,0.011795815,-0.008607104,0.795105,0.013523442,-0.01933392,1.1895248,0.00022919849,-0.01622818,0.794278
88663.297788,0.011795815,-0.008607104,0.795105,0.013523442,-0.01933392,1.1895248,0.0011389973,-0.011466033,0.3939765,nacc
88663.297788,0.0123844445,-0.007867887,0.79554826,0.013523442,-0.01933392,1.1895248,0.0011389973,-0.011466033,0.3939765
88663.318226,0.0123844445,-0.007867887,0.79554826,0.013523442,-0.01933392,1.1895248,0.0047385097,-0.00815783,0.3869477,nacc
88663.318226,0.0123844445,-0.007867887,0.79554826,0.017122954,-0.016025716,1.182496,0.0047385097,-0.00815783,0.3869477
88663.318226,0.0123844445,-0.007867887,0.79554826,0.017122954,-0.016025716,1.182496,0.0061306255,-0.003523483,-0.013869286,nacc
88663.318226,0.010992329,-0.0125022335,1.1963652,0.017122954,-0.016025716,1.182496,0.0061306255,-0.003523483,-0.013869286
88663.338694,0.010992329,-0.0125022335,1.1963652,0.017122954,-0.016025716,1.182496,0.0058075255,-0.007137092,0.3902585,nacc
88663.338694,0.010992329,-0.0125022335,1.1963652,0.017021144,-0.014495924,1.1855522,0.0058075255,-0.007137092,0.3902585
88663.338694,0.010992329,-0.0125022335,1.1963652,0.017021144,-0.014495924,1.1855522,0.0086122835,-0.0005779667,-0.41201752,nacc
88663.338694,0.009596436,-0.01195005,1.1956861,0.017021144,-0.014495924,1.1855522,0.0086122835,-0.0005779667,-0.41201752
88663.359134,0.009596436,-0.01195005,1.1956861,0.017021144,-0.014495924,1.1855522,0.00470501,-0.014098341,0.3932472,nacc
88663.359134,0.009596436,-0.01195005,1.1956861,0.015511385,-0.020948118,1.1882864,0.00470501,-0.014098341,0.3932472
88663.359134,0.009596436,-0.01195005,1.1956861,0.015511385,-0.020948118,1.1882864,0.009235055,-0.00067970436,-0.4129575,nacc
88663.359134,0.009686341,-0.011288352,1.196117,0.015511385,-0.020948118,1.1882864,0.009235055,-0.00067970436,-0.4129575
88663.379693,0.009686341,-0.011288352,1.196117,0.015511385,-0.020948118,1.1882864,0.004297765,-0.0043379473,0.38443655,nacc
88663.379693,0.009686341,-0.011288352,1.196117,0.0149005195,-0.0114422515,1.1795777,0.004297765,-0.0043379473,0.38443655
88663.379693,0.009686341,-0.011288352,1.196117,0.0149005195,-0.0114422515,1.1795777,0.008333641,-0.00026596524,-0.4130823,nacc
88663.379693,0.009264213,-0.012007524,1.19614,0.0149005195,-0.0114422515,1.1795777,0.008333641,-0.00026596524,-0.4130823
88663.400094,0.009264213,-0.012007524,1.19614,0.0149005195,-0.0114422515,1.1795777,0.002394881,-0.013470724,0.39122832,nacc
88663.400094,0.009264213,-0.012007524,1.19614,0.012743109,-0.020269597,1.1867257,0.002394881,-0.013470724,0.39122832
88663.400094,0.009264213,-0.012007524,1.19614,0.012743109,-0.020269597,1.1867257,0.008873894,-0.0014360398,-0.4131295,nacc
88663.400094,0.008978487,-0.011193787,1.1968999,0.012743109,-0.020269597,1.1867257,0.008873894,-0.0014360398,-0.4131295
88663.420554,0.008978487,-0.011193787,1.1968999,0.012743109,-0.020269597,1.1867257,0.0090815695,-0.012433235,0.3876797,nacc
88663.420554,0.008978487,-0.011193787,1.1968999,0.019531608,-0.018621242,1.1834825,0.0090815695,-0.012433235,0.3876797
88663.420554,0.008978487,-0.011193787,1.1968999,0.019531608,-0.018621242,1.1834825,0.008603558,-0.0021820273,-0.41336292,nacc
88663.420554,0.008994296,-0.011007759,1.196777,0.019531608,-0.018621242,1.1834825,0.008603558,-0.0021820273,-0.41336292
88663.440951,0.008994296,-0.011007759,1.196777,0.019531608,-0.018621242,1.1834825,0.0049762856,-0.015984472,0.3887655,nacc
88663.440951,0.008994296,-0.011007759,1.196777,0.01547723,-0.022579722,1.184721,0.0049762856,-0.015984472,0.3887655
88663.440951,0.008994296,-0.011007759,1.196777,0.01547723,-0.022579722,1.184721,0.008509121,-0.00013182592,-0.41292155,nacc
88663.440951,0.0087833,-0.011734419,1.1968447,0.01547723,-0.022579722,1.184721,0.008509121,-0.00013182592,-0.41292155
88663.461489,0.0087833,-0.011734419,1.1968447,0.01547723,-0.022579722,1.184721,0.0022930698,-0.0035743667,0.0004453659,nacc
88663.461489,0.0087833,-0.011734419,1.1968447,0.012539487,-0.0110859135,0.7958409,0.0022930698,-0.0035743667,0.0004453659
88663.461489,0.0087833,-0.011734419,1.1968447,0.012539487,-0.0110859135,0.7958409,0.004553524,0.0010139216,-0.40101784,nacc
88663.461489,0.0079859635,-0.012099835,1.1968588,0.012539487,-0.0110859135,0.7958409,0.004553524,0.0010139216,-0.40101784
88663.481902,0.0079859635,-0.012099835,1.1968588,0.012539487,-0.0110859135,0.7958409,0.0013091173,-0.0059353993,-0.0024555922,nacc
88663.481902,0.0079859635,-0.012099835,1.1968588,0.011301007,-0.01329423,0.7931945,0.0013091173,-0.0059353993,-0.0024555922
88663.481902,0.0079859635,-0.012099835,1.1968588,0.011301007,-0.01329423,0.7931945,0.0055622533,0.005543358,-0.8059759,nacc
88663.481902,0.007859378,-0.011927244,1.1964864,0.011301007,-0.01329423,0.7931945,0.0055622533,0.005543358,-0.8059759
88663.50235,0.007859378,-0.011927244,1.1964864,0.011301007,-0.01329423,0.7931945,0.0047867857,-0.0061363894,-0.0058882833,nacc
88663.50235,0.007859378,-0.011927244,1.1964864,0.014116905,-0.01339341,0.7887437,0.0047867857,-0.0061363894,-0.0058882833
88663.50235,0.007859378,-0.011927244,1.1964864,0.014116905,-0.01339341,0.7887437,0.0060793525,0.0039534597,-0.8059577,nacc
88663.50235,0.0071895644,-0.011711792,1.1964172,0.014116905,-0.01339341,0.7887437,0.0060793525,0.0039534597,-0.8059577
88663.523059,0.0071895644,-0.011711792,1.1964172,0.014116905,-0.01339341,0.7887437,-0.00069557317,-0.0073581203,-0.0044436455,nacc
88663.523059,0.0071895644,-0.011711792,1.1964172,0.00858364,-0.013087978,0.7907992,-0.00069557317,-0.0073581203,-0.0044436455
88663.523059,0.0071895644,-0.011711792,1.1964172,0.00858364,-0.013087978,0.7907992,0.0059205526,0.0028749919,-0.807382,nacc
88663.523059,0.007246554,-0.010378798,1.1969761,0.00858364,-0.013087978,0.7907992,0.0059205526,0.0028749919,-0.807382
88663.543246,0.007246554,-0.010378798,1.1969761,0.00858364,-0.013087978,0.7907992,6.800797e-05,-0.0074940855,-0.00019967556,nacc
88663.543246,0.007246554,-0.010378798,1.1969761,0.009041789,-0.0122058345,0.7952468,6.800797e-05,-0.0074940855,-0.00019967556
88663.543246,0.007246554,-0.010378798,1.1969761,0.009041789,-0.0122058345,0.7952468,0.006289023,0.0017877677,-0.80645716,nacc
88663.543246,0.0070308,-0.00944429,1.1967131,0.009041789,-0.0122058345,0.7952468,0.006289023,0.0017877677,-0.80645716
88663.56621,0.0070308,-0.00944429,1.1967131,0.009041789,-0.0122058345,0.7952468,0.0024799453,-0.008732567,-0.0052748322,nacc
88663.56621,0.0070308,-0.00944429,1.1967131,0.011555537,-0.013037072,0.7904262,0.0024799453,-0.008732567,-0.0052748322
88663.56621,0.0070308,-0.00944429,1.1967131,0.011555537,-0.013037072,0.7904262,0.004214808,-0.0033180453,-0.40716642,nacc
88663.56621,0.007340729,-0.009719026,1.1975926,0.011555537,-0.013037072,0.7904262,0.004214808,-0.0033180453,-0.40716642
88663.586723,0.007340729,-0.009719026,1.1975926,0.011555537,-0.013037072,0.7904262,0.0019541392,-0.0038269162,-0.0028628707,nacc
88663.586723,0.007340729,-0.009719026,1.1975926,0.011080637,-0.008895003,0.7931436,0.0019541392,-0.0038269162,-0.0028628707
88663.586723,0.007340729,-0.009719026,1.1975926,0.011080637,-0.008895003,0.7931436,0.0031890012,-0.0036616148,-0.005141914,nacc
88663.586723,0.007891635,-0.0052333884,0.7982855,0.011080637,-0.008895003,0.7931436,0.0031890012,-0.0036616148,-0.005141914
88663.607136,0.007891635,-0.0052333884,0.7982855,0.011080637,-0.008895003,0.7931436,-0.0004672762,-0.008205291,0.3981355,nacc
88663.607136,0.007891635,-0.0052333884,0.7982855,0.010076648,-0.008029611,0.7946701,-0.0004672762,-0.008205291,0.3981355
88663.607136,0.007891635,-0.0052333884,0.7982855,0.010076648,-0.008029611,0.7946701,0.00624762,-0.0015670583,-0.4078922,nacc
88663.607136,0.0076321624,-0.005529504,0.7974863,0.010076648,-0.008029611,0.7946701,0.00624762,-0.0015670583,-0.4078922
88663.627564,0.0076321624,-0.005529504,0.7974863,0.010076648,-0.008029611,0.7946701,0.0046419958,-0.015488723,0.3886096,nacc
88663.627564,0.0076321624,-0.005529504,0.7974863,0.015287731,-0.016636584,0.78519505,0.0046419958,-0.015488723,0.3886096
88663.627564,0.0076321624,-0.005529504,0.7974863,0.015287731,-0.016636584,0.78519505,0.0053474624,0.0068101585,-0.8037556,nacc
88663.627564,0.00824429,-0.006402915,0.79805416,0.015287731,-0.016636584,0.78519505,0.0053474624,0.0068101585,-0.8037556
88663.648061,0.00824429,-0.006402915,0.79805416,0.015287731,-0.016636584,0.78519505,0.0020980295,-0.0050330553,-0.0011326373,nacc
88663.648061,0.00824429,-0.006402915,0.79805416,0.011725656,-0.005570051,0.39530012,0.0020980295,-0.0050330553,-0.0011326373
88663.648061,0.00824429,-0.006402915,0.79805416,0.011725656,-0.005570051,0.39530012,0.004573081,0.00040661683,-0.40235576,nacc
88663.648061,0.0071525746,-0.0059766676,0.7976559,0.011725656,-0.005570051,0.39530012,0.004573081,0.00040661683,-0.40235576
88663.668463,0.0071525746,-0.0059766676,0.7976559,0.011725656,-0.005570051,0.39530012,-0.0047955634,0.0018772879,-0.00041997433,nacc
88663.668463,0.0071525746,-0.0059766676,0.7976559,0.0043739136,0.0017475359,0.39489284,-0.0047955634,0.0018772879,-0.00041997433
88663.668463,0.0071525746,-0.0059766676,0.7976559,0.0043739136,0.0017475359,0.39489284,-0.0023417058,0.007099685,-0.40176967,nacc
88663.668463,0.0067156195,-0.005352149,0.7966625,0.0043739136,0.0017475359,0.39489284,-0.0023417058,0.007099685,-0.40176967
88663.688936,0.0067156195,-0.005352149,0.7966625,0.0043739136,0.0017475359,0.39489284,-0.005100997,-0.0015353541,-0.004663825,nacc
88663.688936,0.0067156195,-0.005352149,0.7966625,0.0039666686,-0.0025814038,0.38998723,-0.005100997,-0.0015353541,-0.004663825
88663.688936,0.0067156195,-0.005352149,0.7966625,0.0039666686,-0.0025814038,0.38998723,-0.0024499786,0.0040881345,-0.4058597,nacc
88663.688936,0.006416647,-0.0066695386,0.79584694,0.0039666686,-0.0025814038,0.38998723,-0.0024499786,0.0040881345,-0.4058597
88663.709967,0.006416647,-0.0066695386,0.79584694,0.0039666686,-0.0025814038,0.38998723,-0.0067634727,-0.010413606,0.39367124,nacc
88663.709967,0.006416647,-0.0066695386,0.79584694,0.001896949,-0.011663277,0.78822047,-0.0067634727,-0.010413606,0.39367124
88663.709967,0.006416647,-0.0066695386,0.79584694,0.001896949,-0.011663277,0.78822047,-0.0018399456,0.0034588445,-0.40697858,nacc
88663.709967,0.0062138573,-0.0065493025,0.79610044,0.001896949,-0.011663277,0.78822047,-0.0018399456,0.0034588445,-0.40697858
88663.729898,0.0062138573,-0.0065493025,0.79610044,0.001896949,-0.011663277,0.78822047,-0.0065598506,-0.011621214,0.39160153,nacc
88663.729898,0.0062138573,-0.0065493025,0.79610044,0.0026096262,-0.013125413,0.78594714,-0.0065598506,-0.011621214,0.39160153
88663.729898,0.0062138573,-0.0065493025,0.79610044,0.0026096262,-0.013125413,0.78594714,-0.0014915429,0.0035408959,-0.40698707,nacc
88663.729898,0.00637451,-0.0064786375,0.79600716,0.0026096262,-0.013125413,0.78594714,-0.0014915429,0.0035408959,-0.40698707
88663.750342,0.00637451,-0.0064786375,0.79600716,0.0026096262,-0.013125413,0.78594714,-0.0066107567,-0.014626613,0.39654404,nacc
88663.750342,0.00637451,-0.0064786375,0.79600716,0.0023550976,-0.015774474,0.7917041,-0.0066107567,-0.014626613,0.39654404
88663.750342,0.00637451,-0.0064786375,0.79600716,0.0023550976,-0.015774474,0.7917041,-0.0041610906,-0.0098403115,-0.0044476986,nacc
88663.750342,0.0065161884,-0.0059341616,0.7961518,0.0023550976,-0.015774474,0.7917041,-0.0041610906,-0.0098403115,-0.0044476986
88663.770737,0.0065161884,-0.0059341616,0.7961518,0.0023550976,-0.015774474,0.7917041,-0.007696522,-0.010769943,0.39396268,nacc
88663.770737,0.0065161884,-0.0059341616,0.7961518,0.0019311042,-0.012223236,0.78932637,-0.007696522,-0.010769943,0.39396268
88663.770737,0.0065161884,-0.0059341616,0.7961518,0.0019311042,-0.012223236,0.78932637,-0.0045484547,-0.005526401,-0.0069830418,nacc
88663.770737,0.006479559,-0.006696835,0.7963094,0.0019311042,-0.012223236,0.78932637,-0.0045484547,-0.005526401,-0.0069830418
88663.791204,0.006479559,-0.006696835,0.7963094,0.0019311042,-0.012223236,0.78932637,-0.0044466434,-0.0015028948,-0.0032141209,nacc
88663.791204,0.006479559,-0.006696835,0.7963094,0.0020329154,-0.00819973,0.7930953,-0.0044466434,-0.0015028948,-0.0032141209
88663.791204,0.006479559,-0.006696835,0.7963094,0.0020329154,-0.00819973,0.7930953,-0.0026974261,-0.0010402994,-0.0044989586,nacc
88663.791204,0.004984868,-0.0071594305,0.7969325,0.0020329154,-0.00819973,0.7930953,-0.0026974261,-0.0010402994,-0.0044989586
88663.811644,0.004984868,-0.0071594305,0.7969325,0.0020329154,-0.00819973,0.7930953,-0.0038975885,-0.0047043776,0.3942682,nacc
88663.811644,0.004984868,-0.0071594305,0.7969325,0.003899012,-0.0061300113,0.7903779,-0.0038975885,-0.0047043776,0.3942682
88663.811644,0.004984868,-0.0071594305,0.7969325,0.003899012,-0.0061300113,0.7903779,-0.00133824,0.00042117666,-0.006819725,nacc
88663.811644,0.005237252,-0.006551188,0.79719764,0.003899012,-0.0061300113,0.7903779,-0.00133824,0.00042117666,-0.006819725
88663.832176,0.005237252,-0.006551188,0.79719764,0.003899012,-0.0061300113,0.7903779,-0.009430855,-0.0014753235,-0.003422439,nacc
88663.832176,0.005237252,-0.006551188,0.79719764,-0.00075210974,-0.0060932264,0.794096,-0.009430855,-0.0014753235,-0.003422439
88663.832176,0.005237252,-0.006551188,0.79719764,-0.00075210974,-0.0060932264,0.794096,-0.0067771273,0.004410032,-0.40425527,nacc
88663.832176,0.0060250177,-0.010503259,1.1983513,-0.00075210974,-0.0060932264,0.794096,-0.0067771273,0.004410032,-0.40425527
88663.852572,0.0060250177,-0.010503259,1.1983513,-0.00075210974,-0.0060932264,0.794096,-0.005250617,0.004969992,-0.41398472,nacc
88663.852572,0.0060250177,-0.010503259,1.1983513,0.0007744006,-0.0055332663,0.78436655,-0.005250617,0.004969992,-0.41398472
88663.852572,0.0060250177,-0.010503259,1.1983513,0.0007744006,-0.0055332663,0.78436655,-0.00203187,0.0106887575,-0.8142242,nacc
88663.852572,0.0028062705,-0.016222024,1.5985907,0.0007744006,-0.0055332663,0.78436655,-0.00203187,0.0106887575,-0.8142242
88663.872985,0.0028062705,-0.016222024,1.5985907,0.0007744006,-0.0055332663,0.78436655,-0.0020318695,0.012554855,-0.8204561,nacc
88663.872985,0.0028062705,-0.016222024,1.5985907,0.00077440095,-0.003667169,0.77813464,-0.0020318695,0.012554855,-0.8204561
88663.872985,0.0028062705,-0.016222024,1.5985907,0.00077440095,-0.003667169,0.77813464,0.00048913097,0.018657284,-1.2209027,nacc
88663.872985,0.00028527,-0.022324452,1.9990373,0.00077440095,-0.003667169,0.77813464,0.00048913097,0.018657284,-1.2209027
88663.893472,0.00028527,-0.022324452,1.9990373,0.00077440095,-0.003667169,0.77813464,-0.0009434747,0.010482505,-0.81082815,nacc
88663.893472,0.00028527,-0.022324452,1.9990373,0.0032372426,-0.006808532,0.78740615,-0.0009434747,0.010482505,-0.81082815
88663.893472,0.00028527,-0.022324452,1.9990373,0.0032372426,-0.006808532,0.78740615,0.002463906,0.012758838,-0.81042904,nacc
88663.893472,0.00077333645,-0.01956737,1.5978352,0.0032372426,-0.006808532,0.78740615,0.002463906,0.012758838,-0.81042904
88663.913891,0.00077333645,-0.01956737,1.5978352,0.0032372426,-0.006808532,0.78740615,-0.00036676414,0.011500614,-0.40507066,nacc
88663.913891,0.00077333645,-0.01956737,1.5978352,0.0031354316,-0.0034126416,0.7918059,-0.00036676414,0.011500614,-0.40507066
88663.913891,0.00077333645,-0.01956737,1.5978352,0.0031354316,-0.0034126416,0.7918059,0.0043404982,0.018863058,-1.2075784,nacc
88663.913891,0.0005933745,-0.020171825,1.5976167,0.0031354316,-0.0034126416,0.7918059,0.0043404982,0.018863058,-1.2075784
88663.9344,0.0005933745,-0.020171825,1.5976167,0.0031354316,-0.0034126416,0.7918059,-0.0011638468,0.010296288,-0.40763545,nacc
88663.9344,0.0005933745,-0.020171825,1.5976167,0.002338349,-0.0040061027,0.79005575,-0.0011638468,0.010296288,-0.40763545
88663.9344,0.0005933745,-0.020171825,1.5976167,0.002338349,-0.0040061027,0.79005575,0.0050024195,0.01699052,-1.2083225,nacc
88663.9344,-6.854612e-05,-0.01916468,1.5978516,0.002338349,-0.0040061027,0.79005575,0.0050024195,0.01699052,-1.2083225
88663.95483,-6.854612e-05,-0.01916468,1.5978516,0.002338349,-0.0040061027,0.79005575,0.002839625,0.004725584,-0.41432542,nacc
88663.95483,-6.854612e-05,-0.01916468,1.5978516,0.005680051,-0.008864131,0.7831113,0.002839625,0.004725584,-0.41432542
88663.95483,-6.854612e-05,-0.01916468,1.5978516,0.005680051,-0.008864131,0.7831113,0.005927009,0.00963922,-0.81427616,nacc
88663.95483,-0.00024695788,-0.018503351,1.5973874,0.005680051,-0.008864131,0.7831113,0.005927009,0.00963922,-0.81427616
88663.975243,-0.00024695788,-0.018503351,1.5973874,0.005680051,-0.008864131,0.7831113,-0.0028296083,0.00039664377,-0.022388935,nacc
88663.975243,-0.00024695788,-0.018503351,1.5973874,0.00021444012,-0.012531299,1.1754041,-0.0028296083,0.00039664377,-0.022388935
88663.975243,-0.00024695788,-0.018503351,1.5973874,0.00021444012,-0.012531299,1.1754041,0.0056777108,0.009507749,-0.8147332,nacc
88663.975243,0.00010415027,-0.017761014,1.5973864,0.00021444012,-0.012531299,1.1754041,0.0056777108,0.009507749,-0.8147332
88663.995716,0.00010415027,-0.017761014,1.5973864,0.00021444012,-0.012531299,1.1754041,-9.548757e-05,-0.0039999504,-0.010640621,nacc
88663.995716,0.00010415027,-0.017761014,1.5973864,0.0031521823,-0.016418839,1.1872033,-9.548757e-05,-0.0039999504,-0.010640621
88663.995716,0.00010415027,-0.017761014,1.5973864,0.0031521823,-0.016418839,1.1872033,0.0031086274,0.002008712,-0.40995467,nacc
88663.995716,4.3555006e-05,-0.01842755,1.597158,0.0031521823,-0.016418839,1.1872033,0.0031086274,0.002008712,-0.40995467
88664.01616,4.3555006e-05,-0.01842755,1.597158,0.0031521823,-0.016418839,1.1872033,0.0036344323,0.009258641,-0.41577923,nacc
88664.01616,4.3555006e-05,-0.01842755,1.597158,0.0036779873,-0.00916891,1.1813787,0.0036344323,0.009258641,-0.41577923
88664.01616,4.3555006e-05,-0.01842755,1.597158,0.0036779873,-0.00916891,1.1813787,0.007527883,0.016780466,-1.2122056,nacc
88664.01616,-0.0027641307,-0.023964716,1.9965897,0.0036779873,-0.00916891,1.1813787,0.007527883,0.016780466,-1.2122056
88664.036647,-0.0027641307,-0.023964716,1.9965897,0.0036779873,-0.00916891,1.1813787,0.0030577206,0.007779752,-0.41443908,nacc
88664.036647,-0.0027641307,-0.023964716,1.9965897,0.0029485598,-0.011513191,1.1825153,0.0030577206,0.007779752,-0.41443908
88664.036647,-0.0027641307,-0.023964716,1.9965897,0.0029485598,-0.011513191,1.1825153,0.007576073,0.0166695,-1.2111357,nacc
88664.036647,-0.0031686593,-0.024159184,1.9956723,0.0029485598,-0.011513191,1.1825153,0.007576073,0.0166695,-1.2111357
88664.05708,-0.0031686593,-0.024159184,1.9956723,0.0029485598,-0.011513191,1.1825153,0.0069761346,-0.0026959516,-0.014743805,nacc
88664.05708,-0.0031686593,-0.024159184,1.9956723,0.006357919,-0.022192515,1.5822614,0.0069761346,-0.0026959516,-0.014743805
88664.05708,-0.0031686593,-0.024159184,1.9956723,0.006357919,-0.022192515,1.5822614,0.009657357,0.0015487894,-0.41384757,nacc
88664.05708,-0.0032994382,-0.023741305,1.996109,0.006357919,-0.022192515,1.5822614,0.009657357,0.0015487894,-0.41384757
88664.077595,-0.0032994382,-0.023741305,1.996109,0.006357919,-0.022192515,1.5822614,0.007230662,0.0017515495,-0.022010446,nacc
88664.077595,-0.0032994382,-0.023741305,1.996109,0.0073760278,-0.017592298,1.5746384,0.007230662,0.0017515495,-0.022010446
88664.077595,-0.0032994382,-0.023741305,1.996109,0.0073760278,-0.017592298,1.5746384,0.010159515,0.006494364,-0.42118347,nacc
88664.077595,-0.0027834869,-0.024086662,1.9958218,0.0073760278,-0.017592298,1.5746384,0.010159515,0.006494364,-0.42118347
88664.09798,-0.0027834869,-0.024086662,1.9958218,0.0073760278,-0.017592298,1.5746384,0.0013919629,-0.0013556574,-0.015151143,nacc
88664.09798,-0.0027834869,-0.024086662,1.9958218,0.0015882343,-0.02176852,1.5823631,0.0013919629,-0.0013556574,-0.015151143
88664.09798,-0.0027834869,-0.024086662,1.9958218,0.0015882343,-0.02176852,1.5823631,0.009031383,0.007911272,-0.81696653,nacc
88664.09798,-0.0029614933,-0.024672331,1.9962726,0.0015882343,-0.02176852,1.5823631,0.009031383,0.007911272,-0.81696653
88664.118463,-0.0029614933,-0.024672331,1.9962726,0.0015882343,-0.02176852,1.5823631,0.0011039339,0.014382033,-0.41647446,nacc
88664.118463,-0.0029614933,-0.024672331,1.9962726,0.0005875292,-0.005725397,1.1818542,0.0011039339,0.014382033,-0.41647446
88664.118463,-0.0029614933,-0.024672331,1.9962726,0.0005875292,-0.005725397,1.1818542,0.00299147,0.018746316,-0.8153492,nacc
88664.118463,-0.0024039408,-0.024471713,1.9972035,0.0005875292,-0.005725397,1.1818542,0.00299147,0.018746316,-0.8153492
88664.138932,-0.0024039408,-0.024471713,1.9972035,0.0005875292,-0.005725397,1.1818542,0.0036344323,0.009781815,-0.41265476,nacc
88664.138932,-0.0024039408,-0.024471713,1.9972035,0.0033216495,-0.010325614,1.1853687,0.0036344323,0.009781815,-0.41265476
88664.138932,-0.0024039408,-0.024471713,1.9972035,0.0033216495,-0.010325614,1.1853687,0.00730562,0.017614633,-1.2109067,nacc
88664.138932,-0.0026945835,-0.024035303,1.9962578,0.0033216495,-0.010325614,1.1853687,0.00730562,0.017614633,-1.2109067
88664.159467,-0.0026945835,-0.024035303,1.9962578,0.0033216495,-0.010325614,1.1853687,0.0041434863,0.007353129,-0.40885162,nacc
88664.159467,-0.0026945835,-0.024035303,1.9962578,0.00342346,-0.01244887,1.1881536,0.0041434863,0.007353129,-0.40885162
88664.159467,-0.0026945835,-0.024035303,1.9962578,0.00342346,-0.01244887,1.1881536,0.0063627027,0.011251092,-0.80728173,nacc
88664.159467,-0.0029392426,-0.023699962,1.9954354,0.00342346,-0.01244887,1.1881536,0.0063627027,0.011251092,-0.80728173
88664.179782,-0.0029392426,-0.023699962,1.9954354,0.00342346,-0.01244887,1.1881536,0.011919225,0.011973379,-0.808632,nacc
88664.179782,-0.0029392426,-0.023699962,1.9954354,0.011148293,-0.008083146,0.7881696,0.011919225,0.011973379,-0.808632
88664.179782,-0.0029392426,-0.023699962,1.9954354,0.011148293,-0.008083146,0.7881696,0.015736172,0.021496834,-1.6079499,nacc
88664.179782,-0.0027726877,-0.024267087,1.9953216,0.011148293,-0.008083146,0.7881696,0.015736172,0.021496834,-1.6079499
88664.200242,-0.0027726877,-0.024267087,1.9953216,0.011148293,-0.008083146,0.7881696,0.013547545,0.013941288,-0.80690116,nacc
88664.200242,-0.0027726877,-0.024267087,1.9953216,0.013082046,-0.005758899,0.78959495,0.013547545,0.013941288,-0.80690116
88664.200242,-0.0027726877,-0.024267087,1.9953216,0.013082046,-0.005758899,0.78959495,0.01634454,0.018083721,-1.2060535,nacc
88664.200242,-0.0032624938,-0.02384262,1.9956485,0.013082046,-0.005758899,0.78959495,0.01634454,0.018083721,-1.2060535
88664.220666,-0.0032624938,-0.02384262,1.9956485,0.013082046,-0.005758899,0.78959495,0.019830272,0.0044521745,-0.41372633,nacc
88664.220666,-0.0032624938,-0.02384262,1.9956485,0.018652096,-0.015807973,1.1829225,0.019830272,0.0044521745,-0.41372633
88664.220666,-0.0032624938,-0.02384262,1.9956485,0.018652096,-0.015807973,1.1829225,0.018147107,0.012131156,-1.2099512,nacc
88664.220666,-0.0031112742,-0.024339618,1.9955225,0.018652096,-0.015807973,1.1829225,0.018147107,0.012131156,-1.2099512
88664.24123,-0.0031112742,-0.024339618,1.9955225,0.018652096,-0.015807973,1.1829225,0.01256359,0.0045204815,-0.4064257,nacc
88664.24123,-0.0031112742,-0.024339618,1.9955225,0.01153813,-0.015739666,1.1897651,0.01256359,0.0045204815,-0.4064257
88664.24123,-0.0031112742,-0.024339618,1.9955225,0.01153813,-0.015739666,1.1897651,0.0150281135,0.00793138,-0.80507505,nacc
88664.24123,-0.0034899835,-0.023671046,1.9948401,0.01153813,-0.015739666,1.1897651,0.0150281135,0.00793138,-0.80507505
88664.26163,-0.0034899835,-0.023671046,1.9948401,0.01153813,-0.015739666,1.1897651,0.01792739,0.009866877,-0.40618765,nacc
88664.26163,-0.0034899835,-0.023671046,1.9948401,0.016545592,-0.010545987,1.1901048,0.01792739,0.009866877,-0.40618765
88664.26163,-0.0034899835,-0.023671046,1.9948401,0.016545592,-0.010545987,1.1901048,0.016012501,0.007325406,-0.80675906,nacc
88664.26163,-0.00051851926,-0.019126624,1.5944176,0.016545592,-0.010545987,1.1901048,0.016012501,0.007325406,-0.80675906
88664.282178,-0.00051851926,-0.019126624,1.5944176,0.016545592,-0.010545987,1.1901048,0.014864382,0.0002776459,-0.0124439,nacc
88664.282178,-0.00051851926,-0.019126624,1.5944176,0.016172504,-0.014840771,1.182954,0.014864382,0.0002776459,-0.0124439
88664.282178,-0.00051851926,-0.019126624,1.5944176,0.016172504,-0.014840771,1.182954,0.016762955,0.0042434083,-0.41154373,nacc
88664.282178,-0.00059045135,-0.01908418,1.5944977,0.016172504,-0.014840771,1.182954,0.016762955,0.0042434083,-0.41154373
88664.302439,-0.00059045135,-0.01908418,1.5944977,0.016172504,-0.014840771,1.182954,0.01133581,-0.0017920723,-0.0019339323,nacc
88664.302439,-0.00059045135,-0.01908418,1.5944977,0.012847553,-0.01614691,1.1932603,0.01133581,-0.0017920723,-0.0019339323
88664.302439,-0.00059045135,-0.01908418,1.5944977,0.012847553,-0.01614691,1.1932603,0.01605423,0.006778189,-0.8070584,nacc
88664.302439,-0.00035662623,-0.019088462,1.5943098,0.012847553,-0.01614691,1.1932603,0.01605423,0.006778189,-0.8070584
88664.323033,-0.00035662623,-0.019088462,1.5943098,0.012847553,-0.01614691,1.1932603,0.004659958,0.004182592,-0.40320665,nacc
88664.323033,-0.00035662623,-0.019088462,1.5943098,0.006120796,-0.012310274,0.79122394,0.004659958,0.004182592,-0.40320665
88664.323033,-0.00035662623,-0.019088462,1.5943098,0.006120796,-0.012310274,0.79122394,0.0032773023,0.0022127507,-0.40198034,nacc
88664.323033,0.0028434936,-0.014523025,1.1932043,0.006120796,-0.012310274,0.79122394,0.0032773023,0.0022127507,-0.40198034
88664.34337,0.0028434936,-0.014523025,1.1932043,0.006120796,-0.012310274,0.79122394,0.009900531,-0.00034572277,-0.00427413,nacc
88664.34337,0.0028434936,-0.014523025,1.1932043,0.013862378,-0.010596894,0.79024,0.009900531,-0.00034572277,-0.00427413
88664.34337,0.0028434936,-0.014523025,1.1932043,0.013862378,-0.010596894,0.79024,0.0069131954,0.004670636,-0.40309238,nacc
88664.34337,0.005439423,-0.008255375,0.7934675,0.013862378,-0.010596894,0.79024,0.0069131954,0.004670636,-0.40309238
88664.363893,0.005439423,-0.008255375,0.7934675,0.013862378,-0.010596894,0.79024,0.0063254447,0.0003709551,0.39625445,nacc
88664.363893,0.005439423,-0.008255375,0.7934675,0.013404227,-0.004772315,0.7897651,0.0063254447,0.0003709551,0.39625445
88664.363893,0.005439423,-0.008255375,0.7934675,0.013404227,-0.004772315,0.7897651,0.006311595,0.0045635058,-0.40281278,nacc
88664.363893,0.0055828723,-0.008351866,0.7931879,0.013404227,-0.004772315,0.7897651,0.006311595,0.0045635058,-0.40281278
88664.384329,0.0055828723,-0.008351866,0.7931879,0.013404227,-0.004772315,0.7897651,-0.00036124466,-0.0036358,0.39467373,nacc
88664.384329,0.0055828723,-0.008351866,0.7931879,0.006157579,-0.008066394,0.787828,-0.00036124466,-0.0036358,0.39467373
88664.384329,0.0055828723,-0.008351866,0.7931879,0.006157579,-0.008066394,0.787828,0.006926957,0.0040858057,-0.40300968,nacc
88664.384329,0.005222037,-0.008026882,0.7930794,0.006157579,-0.008066394,0.787828,0.006926957,0.0040858057,-0.40300968
88664.404747,0.005222037,-0.008026882,0.7930794,0.006157579,-0.008066394,0.787828,0.007139931,-0.009443628,0.38980153,nacc
88664.404747,0.005222037,-0.008026882,0.7930794,0.013760564,-0.0136706,0.78310853,0.007139931,-0.009443628,0.38980153
88664.404747,0.005222037,-0.008026882,0.7930794,0.013760564,-0.0136706,0.78310853,0.0085155815,-0.005858102,-0.009959102,nacc
88664.404747,0.005244983,-0.007812498,0.79306763,0.013760564,-0.0136706,0.78310853,0.0085155815,-0.005858102,-0.009959102
88664.42526,0.005244983,-0.007812498,0.79306763,0.013760564,-0.0136706,0.78310853,0.0012503252,-0.017185207,0.7926383,nacc
88664.42526,0.005244983,-0.007812498,0.79306763,0.0074128103,-0.020801315,1.1863526,0.0012503252,-0.017185207,0.7926383
88664.42526,0.005244983,-0.007812498,0.79306763,0.0074128103,-0.020801315,1.1863526,0.008105468,-0.0045408653,-0.009594321,nacc
88664.42526,0.0054005687,-0.007806193,0.7931611,0.0074128103,-0.020801315,1.1863526,0.008105468,-0.0045408653,-0.009594321
88664.445722,0.0054005687,-0.007806193,0.7931611,0.0074128103,-0.020801315,1.1863526,0.0033568302,-0.0055386834,0.39652565,nacc
88664.445722,0.0054005687,-0.007806193,0.7931611,0.010384708,-0.00915479,0.7891709,0.0033568302,-0.0055386834,0.39652565
88664.445722,0.0054005687,-0.007806193,0.7931611,0.010384708,-0.00915479,0.7891709,0.0068758735,0.0016690544,-0.4025035,nacc
88664.445722,0.0053240266,-0.007427953,0.7923863,0.010384708,-0.00915479,0.7891709,0.0068758735,0.0016690544,-0.4025035
88664.466142,0.0053240266,-0.007427953,0.7923863,0.010384708,-0.00915479,0.7891709,0.0040862574,-0.004789223,0.40226263,nacc
88664.466142,0.0053240266,-0.007427953,0.7923863,0.011165041,-0.008456235,0.79434794,0.0040862574,-0.004789223,0.40226263
88664.466142,0.0053240266,-0.007427953,0.7923863,0.011165041,-0.008456235,0.79434794,0.005629253,-0.00035538524,0.0024570823,nacc
88664.466142,0.0055357874,-0.00810085,0.79189086,0.011165041,-0.008456235,0.79434794,0.005629253,-0.00035538524,0.0024570823
88664.486546,0.0055357874,-0.00810085,0.79189086,0.011165041,-0.008456235,0.79434794,0.004018602,-0.0090337545,0.3931807,nacc
88664.486546,0.0055357874,-0.00810085,0.79189086,0.010435614,-0.013362537,0.78572416,0.004018602,-0.0090337545,0.3931807
88664.486546,0.0055357874,-0.00810085,0.79189086,0.010435614,-0.013362537,0.78572416,0.004312981,-0.0052654743,-0.0037940145,nacc
88664.486546,0.007937823,-0.0035986567,0.39306596,0.010435614,-0.013362537,0.78572416,0.004312981,-0.0052654743,-0.0037940145
88664.509543,0.007937823,-0.0035986567,0.39306596,0.010435614,-0.013362537,0.78572416,0.0008144872,-0.0095426515,0.7973493,nacc
88664.509543,0.007937823,-0.0035986567,0.39306596,0.010231991,-0.00933903,0.789968,0.0008144872,-0.0095426515,0.7973493
88664.509543,0.007937823,-0.0035986567,0.39306596,0.010231991,-0.00933903,0.789968,0.002026625,-0.0054886136,0.39698866,nacc
88664.509543,0.008205366,-0.0038504165,0.39297935,0.010231991,-0.00933903,0.789968,0.002026625,-0.0054886136,0.39698866
88664.529979,0.008205366,-0.0038504165,0.39297935,0.010231991,-0.00933903,0.789968,-0.002462842,-0.010529237,0.7979769,nacc
88664.529979,0.008205366,-0.0038504165,0.39297935,0.007361906,-0.009562033,0.79085016,-0.002462842,-0.010529237,0.7979769
88664.529979,0.008205366,-0.0038504165,0.39297935,0.007361906,-0.009562033,0.79085016,0.0033810306,-0.0031169343,-0.0030051172,nacc
88664.529979,0.008615247,-0.0031510193,0.3924297,0.007361906,-0.009562033,0.79085016,0.0033810306,-0.0031169343,-0.0030051172
88664.550486,0.008615247,-0.0031510193,0.3924297,0.007361906,-0.009562033,0.79085016,0.005329646,-0.010543358,0.79904586,nacc
88664.550486,0.008615247,-0.0031510193,0.3924297,0.0155616375,-0.0090671005,0.7913082,0.005329646,-0.010543358,0.79904586
88664.550486,0.008615247,-0.0031510193,0.3924297,0.0155616375,-0.0090671005,0.7913082,0.006888997,-0.006237693,0.39910296,nacc
88664.550486,0.008672641,-0.002829407,0.39220527,0.0155616375,-0.0090671005,0.7913082,0.006888997,-0.006237693,0.39910296
88664.570944,0.008672641,-0.002829407,0.39220527,0.0155616375,-0.0090671005,0.7913082,0.0033912966,-0.010077612,0.3968129,nacc
88664.570944,0.008672641,-0.002829407,0.39220527,0.012369369,-0.0127543025,0.78942543,0.0033912966,-0.010077612,0.3968129
88664.570944,0.008672641,-0.002829407,0.39220527,0.012369369,-0.0127543025,0.78942543,0.0049013696,-0.0062524863,-0.003475666,nacc
88664.570944,0.0074679996,-0.006501816,0.7929011,0.012369369,-0.0127543025,0.78942543,0.0049013696,-0.0062524863,-0.003475666
88664.591424,0.0074679996,-0.006501816,0.7929011,0.012369369,-0.0127543025,0.78942543,0.0047995592,-0.0029216222,-0.0044287443,nacc
88664.591424,0.0074679996,-0.006501816,0.7929011,0.012267559,-0.009423438,0.78847235,0.0047995592,-0.0029216222,-0.0044287443
88664.591424,0.0074679996,-0.006501816,0.7929011,0.012267559,-0.009423438,0.78847235,0.0065240967,0.0015501305,-0.40469354,nacc
88664.591424,0.005743462,-0.010973569,1.1931659,0.012267559,-0.009423438,0.78847235,0.0065240967,0.0015501305,-0.40469354
88664.612104,0.005743462,-0.010973569,1.1931659,0.012267559,-0.009423438,0.78847235,0.0072114947,-0.008389861,-0.005734861,nacc
88664.612104,0.005743462,-0.010973569,1.1931659,0.014170441,-0.015502543,0.78701353,0.0072114947,-0.008389861,-0.005734861
88664.612104,0.005743462,-0.010973569,1.1931659,0.014170441,-0.015502543,0.78701353,0.0087623205,-0.004121473,-0.406299,nacc
88664.612104,0.005408121,-0.01138107,1.1933125,0.014170441,-0.015502543,0.78701353,0.0087623205,-0.004121473,-0.406299
88664.63228,0.005408121,-0.01138107,1.1933125,0.014170441,-0.015502543,0.78701353,0.0027298396,-0.020002235,0.38976693,nacc
88664.63228,0.005408121,-0.01138107,1.1933125,0.009586974,-0.027216727,1.1838388,0.0027298396,-0.020002235,0.38976693
88664.63228,0.005408121,-0.01138107,1.1933125,0.009586974,-0.027216727,1.1838388,0.008267868,-0.0035051461,-0.40701574,nacc
88664.63228,0.0056480435,-0.01164106,1.1941819,0.009586974,-0.027216727,1.1838388,0.008267868,-0.0035051461,-0.40701574
88664.652734,0.0056480435,-0.01164106,1.1941819,0.009586974,-0.027216727,1.1838388,0.008178044,-0.012226499,0.39533693,nacc
88664.652734,0.0056480435,-0.01164106,1.1941819,0.014729747,-0.020255478,1.1895616,0.008178044,-0.012226499,0.39533693
88664.652734,0.0056480435,-0.01164106,1.1941819,0.014729747,-0.020255478,1.1895616,0.0093091065,-0.008438529,-0.0045062304,nacc
88664.652734,0.00542064,-0.011816949,1.1940678,0.014729747,-0.020255478,1.1895616,0.0093091065,-0.008438529,-0.0045062304
88664.673182,0.00542064,-0.011816949,1.1940678,0.014729747,-0.020255478,1.1895616,0.00850023,-0.019779231,0.7989372,nacc
88664.673182,0.00542064,-0.011816949,1.1940678,0.015255553,-0.025568372,1.5919911,0.00850023,-0.019779231,0.7989372
88664.673182,0.00542064,-0.011816949,1.1940678,0.015255553,-0.025568372,1.5919911,0.009801872,-0.0149367815,0.3991753,nacc
88664.673182,0.00545368,-0.01063159,1.1928158,0.015255553,-0.025568372,1.5919911,0.009801872,-0.0149367815,0.3991753
88664.693673,0.00545368,-0.01063159,1.1928158,0.015255553,-0.025568372,1.5919911,0.0053279917,-0.01816766,0.7924167,nacc
88664.693673,0.00545368,-0.01063159,1.1928158,0.011217925,-0.024567666,1.5858778,0.0053279917,-0.01816766,0.7924167
88664.693673,0.00545368,-0.01063159,1.1928158,0.011217925,-0.024567666,1.5858778,0.009340862,-0.010426105,-0.0042159557,nacc
88664.693673,0.00487983,-0.010542049,1.193523,0.011217925,-0.024567666,1.5858778,0.009340862,-0.010426105,-0.0042159557
88664.714119,0.00487983,-0.010542049,1.193523,0.011217925,-0.024567666,1.5858778,0.005393018,-0.021374049,0.79863197,nacc
88664.714119,0.00487983,-0.010542049,1.193523,0.011079329,-0.026755946,1.5915331,0.005393018,-0.021374049,0.79863197
88664.714119,0.00487983,-0.010542049,1.193523,0.011079329,-0.026755946,1.5915331,0.01030181,-0.011253039,-0.0032401085,nacc
88664.714119,0.0048351805,-0.009867831,1.192089,0.011079329,-0.026755946,1.5915331,0.01030181,-0.011253039,-0.0032401085
88664.734556,0.0048351805,-0.009867831,1.192089,0.011079329,-0.026755946,1.5915331,0.00605479,-0.021781294,0.79569143,nacc
88664.734556,0.0048351805,-0.009867831,1.192089,0.012199248,-0.026755946,1.5866581,0.00605479,-0.021781294,0.79569143
88664.734556,0.0048351805,-0.009867831,1.192089,0.012199248,-0.026755946,1.5866581,0.0072498,-0.017674316,0.39625776,nacc
88664.734556,0.0047967336,-0.009743403,1.1909095,0.012199248,-0.026755946,1.5866581,0.0072498,-0.017674316,0.39625776
88664.755373,0.0047967336,-0.009743403,1.1909095,0.012199248,-0.026755946,1.5866581,0.0102310125,-0.020950057,0.79903644,nacc
88664.755373,0.0047967336,-0.009743403,1.1909095,0.016528187,-0.026688293,1.5900031,0.0102310125,-0.020950057,0.79903644
88664.755373,0.0047967336,-0.009743403,1.1909095,0.016528187,-0.026688293,1.5900031,0.011389224,-0.015240393,0.39859605,nacc
88664.755373,0.0050371527,-0.010226169,1.1916107,0.016528187,-0.026688293,1.5900031,0.011389224,-0.015240393,0.39859605
88664.775465,0.0050371527,-0.010226169,1.1916107,0.016528187,-0.026688293,1.5900031,0.0074151144,-0.019219274,0.79842573,nacc
88664.775465,0.0050371527,-0.010226169,1.1916107,0.013610479,-0.024448454,1.5905632,0.0074151144,-0.019219274,0.79842573
88664.775465,0.0050371527,-0.010226169,1.1916107,0.013610479,-0.024448454,1.5905632,0.008182913,-0.014513188,0.39890933,nacc
88664.775465,0.005427567,-0.009935266,1.1916538,0.013610479,-0.024448454,1.5905632,0.008182913,-0.014513188,0.39890933
88664.795937,0.005427567,-0.009935266,1.1916538,0.013610479,-0.024448454,1.5905632,0.00860269,-0.017811324,0.79496205,nacc
88664.795937,0.005427567,-0.009935266,1.1916538,0.01474715,-0.023091411,1.5867432,0.00860269,-0.017811324,0.79496205
88664.795937,0.005427567,-0.009935266,1.1916538,0.01474715,-0.023091411,1.5867432,0.012228418,-0.009255067,-0.0017795563,nacc
88664.795937,0.004690262,-0.010491359,1.1920029,0.01474715,-0.023091411,1.5867432,0.012228418,-0.009255067,-0.0017795563
88664.816412,0.004690262,-0.010491359,1.1920029,0.01474715,-0.023091411,1.5867432,0.010502942,-0.01599285,0.7942324,nacc
88664.816412,0.004690262,-0.010491359,1.1920029,0.01588382,-0.021832896,1.5861664,0.010502942,-0.01599285,0.7942324
88664.816412,0.004690262,-0.010491359,1.1920029,0.01588382,-0.021832896,1.5861664,0.011685422,-0.010409305,0.3943565,nacc
88664.816412,0.004198399,-0.0114235915,1.1918099,0.01588382,-0.021832896,1.5861664,0.011685422,-0.010409305,0.3943565
88664.836803,0.004198399,-0.0114235915,1.1918099,0.01588382,-0.021832896,1.5861664,0.012318134,-0.019781861,0.7964718,nacc
88664.836803,0.004198399,-0.0114235915,1.1918099,0.017851729,-0.026741827,1.5886092,0.012318134,-0.019781861,0.7964718
88664.836803,0.004198399,-0.0114235915,1.1918099,0.017851729,-0.026741827,1.5886092,0.013000846,-0.008431754,-0.002118826,nacc
88664.836803,0.004274173,-0.012027348,1.1920875,0.017851729,-0.026741827,1.5886092,0.013000846,-0.008431754,-0.002118826
88664.857256,0.004274173,-0.012027348,1.1920875,0.017851729,-0.026741827,1.5886092,0.009671705,-0.01989779,0.8057433,nacc
88664.857256,0.004274173,-0.012027348,1.1920875,0.014289002,-0.026857756,1.5980843,0.009671705,-0.01989779,0.8057433
88664.857256,0.004274173,-0.012027348,1.1920875,0.014289002,-0.026857756,1.5980843,0.012403293,-0.008586672,-0.0020599365,nacc
88664.857256,0.0039045217,-0.012177859,1.1922833,0.014289002,-0.026857756,1.5980843,0.012403293,-0.008586672,-0.0020599365
88664.87771,0.0039045217,-0.012177859,1.1922833,0.014289002,-0.026857756,1.5980843,0.00906084,-0.02008729,0.8016179,nacc
88664.87771,0.0039045217,-0.012177859,1.1922833,0.014289002,-0.027301783,1.5943662,0.00906084,-0.02008729,0.8016179
88664.87771,0.0039045217,-0.012177859,1.1922833,0.014289002,-0.027301783,1.5943662,0.010296971,-0.015008126,0.40200722,nacc
88664.87771,0.003992031,-0.012293656,1.192359,0.014289002,-0.027301783,1.5943662,0.010296971,-0.015008126,0.40200722
88664.898237,0.003992031,-0.012293656,1.192359,0.014289002,-0.027301783,1.5943662,0.009349521,-0.009048353,0.40574592,nacc
88664.898237,0.003992031,-0.012293656,1.192359,0.014170439,-0.017077332,1.1986469,0.009349521,-0.009048353,0.40574592
88664.898237,0.003992031,-0.012293656,1.192359,0.014170439,-0.017077332,1.1986469,0.0104028955,-0.004399961,0.005633116,nacc
88664.898237,0.0037675432,-0.0126773715,1.1930138,0.014170439,-0.017077332,1.1986469,0.0104028955,-0.004399961,0.005633116
88664.918627,0.0037675432,-0.0126773715,1.1930138,0.014170439,-0.017077332,1.1986469,0.0074325176,-0.0043972284,0.4023131,nacc
88664.918627,0.0037675432,-0.0126773715,1.1930138,0.012660679,-0.011815343,1.1946541,0.0074325176,-0.0043972284,0.4023131
88664.918627,0.0037675432,-0.0126773715,1.1930138,0.012660679,-0.011815343,1.1946541,0.011107344,0.0012010969,-0.3960405,nacc
88664.918627,0.00414886,-0.012337918,1.1924614,0.012660679,-0.011815343,1.1946541,0.011107344,0.0012010969,-0.3960405
88664.939054,0.00414886,-0.012337918,1.1924614,0.012660679,-0.011815343,1.1946541,0.013644304,-0.007080443,0.39937538,nacc
88664.939054,0.00414886,-0.012337918,1.1924614,0.019228805,-0.014447652,1.1920727,0.013644304,-0.007080443,0.39937538
88664.939054,0.00414886,-0.012337918,1.1924614,0.019228805,-0.014447652,1.1920727,0.0148911225,-0.0027397648,-0.00061249733,nacc
88664.939054,0.0043376824,-0.011707887,1.1926852,0.019228805,-0.014447652,1.1920727,0.0148911225,-0.0027397648,-0.00061249733
88664.959596,0.0043376824,-0.011707887,1.1926852,0.019228805,-0.014447652,1.1920727,0.008247004,-0.00779312,0.40296084,nacc
88664.959596,0.0043376824,-0.011707887,1.1926852,0.014086031,-0.013836787,1.1960145,0.008247004,-0.00779312,0.40296084
88664.959596,0.0043376824,-0.011707887,1.1926852,0.014086031,-0.013836787,1.1960145,0.012178246,0.0028696544,-0.39627826,nacc
88664.959596,0.0045033093,-0.010799431,1.1933609,0.014086031,-0.013836787,1.1960145,0.012178246,0.0028696544,-0.39627826
88664.979977,0.0045033093,-0.010799431,1.1933609,0.014086031,-0.013836787,1.1960145,0.011215618,-0.0065713883,0.40375787,nacc
88664.979977,0.0045033093,-0.010799431,1.1933609,0.017461888,-0.012615056,1.1977787,0.011215618,-0.0065713883,0.40375787
88664.979977,0.0045033093,-0.010799431,1.1933609,0.017461888,-0.012615056,1.1977787,0.0121547915,0.0020051794,-0.39743978,nacc
88664.979977,0.004984913,-0.010596729,1.1945224,0.017461888,-0.012615056,1.1977787,0.0121547915,0.0020051794,-0.39743978
88665.000462,0.004984913,-0.010596729,1.1945224,0.017461888,-0.012615056,1.1977787,0.008331411,-0.010015557,0.40402907,nacc
88665.000462,0.004984913,-0.010596729,1.1945224,0.015799413,-0.0149393035,1.1988136,0.008331411,-0.010015557,0.40402907
88665.000462,0.004984913,-0.010596729,1.1945224,0.015799413,-0.0149393035,1.1988136,0.010907246,0.0011415053,-0.39764494,nacc
88665.000462,0.006079743,-0.009987582,1.1947275,0.015799413,-0.0149393035,1.1988136,0.010907246,0.0011415053,-0.39764494
88665.020955,0.006079743,-0.009987582,1.1947275,0.015799413,-0.0149393035,1.1988136,0.011249121,-0.011138104,0.40160304,nacc
88665.020955,0.006079743,-0.009987582,1.1947275,0.018615311,-0.016265474,1.1965402,0.011249121,-0.011138104,0.40160304
88665.020955,0.006079743,-0.009987582,1.1947275,0.018615311,-0.016265474,1.1965402,0.010613479,0.0018244404,-0.3981704,nacc
88665.020955,0.0061189835,-0.010365085,1.1951512,0.018615311,-0.016265474,1.1965402,0.010613479,0.0018244404,-0.3981704
88665.041463,0.0061189835,-0.010365085,1.1951512,0.018615311,-0.016265474,1.1965402,0.010265164,-0.002429319,0.3999715,nacc
88665.041463,0.0061189835,-0.010365085,1.1951512,0.017987693,-0.007913028,1.1955705,0.010265164,-0.002429319,0.3999715
88665.041463,0.0061189835,-0.010365085,1.1951512,0.017987693,-0.007913028,1.1955705,0.008684016,-0.002658864,0.00145334,nacc
88665.041463,0.008201162,-0.006085402,0.7956293,0.017987693,-0.007913028,1.1955705,0.008684016,-0.002658864,0.00145334
88665.061792,0.008201162,-0.006085402,0.7956293,0.017987693,-0.007913028,1.1955705,0.0091130575,-0.01637682,0.79490674,nacc
88665.061792,0.008201162,-0.006085402,0.7956293,0.018547652,-0.017503956,1.1904613,0.0091130575,-0.01637682,0.79490674
88665.061792,0.008201162,-0.006085402,0.7956293,0.018547652,-0.017503956,1.1904613,0.008542497,-0.015793974,0.7949418,nacc
88665.061792,0.010005156,-0.0017099822,0.39551947,0.018547652,-0.017503956,1.1904613,0.008542497,-0.015793974,0.7949418
88665.082301,0.010005156,-0.0017099822,0.39551947,0.018547652,-0.017503956,1.1904613,0.009308708,-0.012143557,0.80380595,nacc
88665.082301,0.010005156,-0.0017099822,0.39551947,0.01946658,-0.013649917,1.2004962,0.009308708,-0.012143557,0.80380595
88665.082301,0.010005156,-0.0017099822,0.39551947,0.01946658,-0.013649917,1.2004962,0.010286891,-0.0077152145,0.4038189,nacc
88665.082301,0.00917969,-0.0059347027,0.7966773,0.01946658,-0.013649917,1.2004962,0.010286891,-0.0077152145,0.4038189
88665.102718,0.00917969,-0.0059347027,0.7966773,0.01946658,-0.013649917,1.2004962,0.004674338,-0.012228615,0.8014107,nacc
88665.102718,0.00917969,-0.0059347027,0.7966773,0.014781305,-0.012615055,1.199679,0.004674338,-0.012228615,0.8014107
88665.102718,0.00917969,-0.0059347027,0.7966773,0.014781305,-0.012615055,1.199679,0.0054724272,-0.007087952,0.40144217,nacc
88665.102718,0.009308877,-0.005527103,0.79823685,0.014781305,-0.012615055,1.199679,0.0054724272,-0.007087952,0.40144217
88665.123293,0.009308877,-0.005527103,0.79823685,0.014781305,-0.012615055,1.199679,-0.0019647283,-0.013263473,1.1982869,nacc
88665.123293,0.009308877,-0.005527103,0.79823685,0.008040428,-0.013548103,1.5963516,-0.0019647283,-0.013263473,1.1982869
88665.123293,0.009308877,-0.005527103,0.79823685,0.008040428,-0.013548103,1.5963516,0.0068031503,-0.007587003,0.40255266,nacc
88665.123293,0.008589019,-0.005078957,0.79722816,0.008040428,-0.013548103,1.5963516,0.0068031503,-0.007587003,0.40255266
88665.143596,0.008589019,-0.005078957,0.79722816,0.008040428,-0.013548103,1.5963516,0.0015362566,-0.009341777,0.80268335,nacc
88665.143596,0.008589019,-0.005078957,0.79722816,0.011490508,-0.009473691,1.1997808,0.0015362566,-0.009341777,0.80268335
88665.143596,0.008589019,-0.005078957,0.79722816,0.011490508,-0.009473691,1.1997808,0.0038249446,-0.0028035268,-0.00055378675,nacc
88665.143596,0.009328038,-0.005313121,0.7966666,0.011490508,-0.009473691,1.1997808,0.0038249446,-0.0028035268,-0.00055378675
88665.164059,0.009328038,-0.005313121,0.7966666,0.011490508,-0.009473691,1.1997808,-0.001215267,-0.014300962,0.7950095,nacc
88665.164059,0.009328038,-0.005313121,0.7966666,0.008993511,-0.015909133,1.1920561,-0.001215267,-0.014300962,0.7950095
88665.164059,0.009328038,-0.005313121,0.7966666,0.008993511,-0.015909133,1.1920561,-0.00066809356,-0.009569865,0.3954224,nacc
88665.164059,0.009661605,-0.006339269,0.79663366,0.008993511,-0.015909133,1.1920561,-0.00066809356,-0.009569865,0.3954224
88665.18449,0.009661605,-0.006339269,0.79663366,0.008993511,-0.015909133,1.1920561,-0.0012661722,-0.007543335,0.79945695,nacc
88665.18449,0.009661605,-0.006339269,0.79663366,0.009298944,-0.009304223,1.1960454,-0.0012661722,-0.007543335,0.79945695
88665.18449,0.009661605,-0.006339269,0.79663366,0.009298944,-0.009304223,1.1960454,-0.0010179747,-0.0028490643,0.40035564,nacc
88665.18449,0.010316919,-0.0064551583,0.79568976,0.009298944,-0.009304223,1.1960454,-0.0010179747,-0.0028490643,0.40035564
88665.20523,0.010316919,-0.0064551583,0.79568976,0.009298944,-0.009304223,1.1960454,5.9999526e-05,-0.0074415253,0.7954334,nacc
88665.20523,0.010316919,-0.0064551583,0.79568976,0.010981453,-0.008642453,1.1913092,5.9999526e-05,-0.0074415253,0.7954334
88665.20523,0.010316919,-0.0064551583,0.79568976,0.010981453,-0.008642453,1.1913092,0.0029223682,-0.000959923,-0.0003631711,nacc
88665.20523,0.010077897,-0.006291332,0.7951525,0.010981453,-0.008642453,1.1913092,0.0029223682,-0.000959923,-0.0003631711
88665.225396,0.010077897,-0.006291332,0.7951525,0.010981453,-0.008642453,1.1913092,0.0018410366,-0.007051033,0.7972996,nacc
88665.225396,0.010077897,-0.006291332,0.7951525,0.01276249,-0.009066448,1.1927681,0.0018410366,-0.007051033,0.7972996
88665.225396,0.010077897,-0.006291332,0.7951525,0.01276249,-0.009066448,1.1927681,0.003127763,-0.0018102643,0.39810687,nacc
88665.225396,0.009634727,-0.0072561833,0.7946612,0.01276249,-0.009066448,1.1927681,0.003127763,-0.0018102643,0.39810687
88665.24586,0.009634727,-0.0072561833,0.7946612,0.01276249,-0.009066448,1.1927681,-0.002691525,-0.010022276,1.1985215,nacc
88665.24586,0.009634727,-0.0072561833,0.7946612,0.008128119,-0.013819382,1.5942955,-0.002691525,-0.010022276,1.1985215
88665.24586,0.009634727,-0.0072561833,0.7946612,0.008128119,-0.013819382,1.5942955,0.0030553294,-4.7858804e-05,0.39737087,nacc
88665.24586,0.00950354,-0.008814967,0.7951427,0.008128119,-0.013819382,1.5942955,0.0030553294,-4.7858804e-05,0.39737087
88665.266301,0.00950354,-0.008814967,0.7951427,0.008128119,-0.013819382,1.5942955,0.0054572998,-0.006388609,1.1975884,nacc
88665.266301,0.00950354,-0.008814967,0.7951427,0.016124226,-0.011000201,1.5934643,0.0054572998,-0.006388609,1.1975884
88665.266301,0.00950354,-0.008814967,0.7951427,0.016124226,-0.011000201,1.5934643,0.0022096867,0.0006003408,0.39756912,nacc
88665.266301,0.0099928435,-0.008597774,0.7950973,0.016124226,-0.011000201,1.5934643,0.0022096867,0.0006003408,0.39756912
88665.287017,0.0099928435,-0.008597774,0.7950973,0.016124226,-0.011000201,1.5934643,-0.0028274897,-0.011772443,1.1936668,nacc
88665.287017,0.0099928435,-0.008597774,0.7950973,0.008246681,-0.015518642,1.5896444,-0.0028274897,-0.011772443,1.1936668
88665.287017,0.0099928435,-0.008597774,0.7950973,0.008246681,-0.015518642,1.5896444,-0.0017509712,-0.001141984,0.7985454,nacc
88665.287017,0.009997652,-0.0079921195,0.79507154,0.008246681,-0.015518642,1.5896444,-0.0017509712,-0.001141984,0.7985454
88665.307248,0.009997652,-0.0079921195,0.79507154,0.008246681,-0.015518642,1.5896444,-0.0065288143,-0.013112735,1.6048727,nacc
88665.307248,0.009997652,-0.0079921195,0.79507154,0.004189018,-0.016095353,2.0013084,-0.0065288143,-0.013112735,1.6048727
88665.307248,0.009997652,-0.0079921195,0.79507154,0.004189018,-0.016095353,2.0013084,-0.0051993253,-0.009530757,1.2058332,nacc
88665.307248,0.009388343,-0.006564596,0.7954752,0.004189018,-0.016095353,2.0013084,-0.0051993253,-0.009530757,1.2058332
88665.327707,0.009388343,-0.006564596,0.7954752,0.004189018,-0.016095353,2.0013084,-0.0049957014,-0.0028407848,1.19415,nacc
88665.327707,0.009388343,-0.006564596,0.7954752,0.004392642,-0.009405381,1.9896251,-0.0049957014,-0.0028407848,1.19415
88665.327707,0.009388343,-0.006564596,0.7954752,0.004392642,-0.009405381,1.9896251,-0.0042494074,0.0015345523,0.7950772,nacc
88665.327707,0.0086420495,-0.010939933,1.1945479,0.004392642,-0.009405381,1.9896251,-0.0042494074,0.0015345523,0.7950772
88665.348201,0.0086420495,-0.010939933,1.1945479,0.004392642,-0.009405381,1.9896251,-0.013314647,-0.0058294325,1.5952191,nacc
88665.348201,0.0086420495,-0.010939933,1.1945479,-0.002450046,-0.01315761,2.3911016,-0.013314647,-0.0058294325,1.5952191
88665.348201,0.0086420495,-0.010939933,1.1945479,-0.002450046,-0.01315761,2.3911016,-0.011843525,-0.0017929161,1.1961101,nacc
88665.348201,0.009393479,-0.011364694,1.1949915,-0.002450046,-0.01315761,2.3911016,-0.011843525,-0.0017929161,1.1961101
88665.368641,0.009393479,-0.011364694,1.1949915,-0.002450046,-0.01315761,2.3911016,-0.013314645,-0.012841588,1.5982077,nacc
88665.368641,0.009393479,-0.011364694,1.1949915,-0.0025009504,-0.019915238,2.3937337,-0.013314645,-0.012841588,1.5982077
88665.368641,0.009393479,-0.011364694,1.1949915,-0.0025009504,-0.019915238,2.3937337,-0.011728782,-0.008674233,1.1990964,nacc
88665.368641,0.0094314525,-0.01093557,1.1948919,-0.0025009504,-0.019915238,2.3937337,-0.011728782,-0.008674233,1.1990964
88665.389033,0.0094314525,-0.01093557,1.1948919,-0.0025009504,-0.019915238,2.3937337,-0.005013106,-0.007288286,1.5950665,nacc
88665.389033,0.0094314525,-0.01093557,1.1948919,0.005698779,-0.014107409,2.3911016,-0.005013106,-0.007288286,1.5950665
88665.389033,0.0094314525,-0.01093557,1.1948919,0.005698779,-0.014107409,2.3911016,-0.0036972542,-0.0030910578,1.195649,nacc
88665.389033,0.009396033,-0.011016351,1.1954526,0.005698779,-0.014107409,2.3911016,-0.0036972542,-0.0030910578,1.195649
88665.409511,0.009396033,-0.011016351,1.1954526,0.005698779,-0.014107409,2.3911016,-0.0049963533,-0.009476567,1.9944053,nacc
88665.409511,0.009396033,-0.011016351,1.1954526,0.0060209627,-0.017008366,2.7902367,-0.0049963533,-0.009476567,1.9944053
88665.409511,0.009396033,-0.011016351,1.1954526,0.0060209627,-0.017008366,2.7902367,-0.0031261886,-0.0056380695,1.5948664,nacc
88665.409511,0.009147151,-0.011370297,1.1953703,0.0060209627,-0.017008366,2.7902367,-0.0031261886,-0.0056380695,1.5948664
88665.430032,0.009147151,-0.011370297,1.1953703,0.0060209627,-0.017008366,2.7902367,-0.0063875536,-0.01494218,2.3888187,nacc
88665.430032,0.009147151,-0.011370297,1.1953703,0.004833385,-0.021914018,3.184294,-0.0063875536,-0.01494218,2.3888187
88665.430032,0.009147151,-0.011370297,1.1953703,0.004833385,-0.021914018,3.184294,-0.003186745,-0.0058087995,1.5952884,nacc
88665.430032,0.009156801,-0.011555905,1.1944903,0.004833385,-0.021914018,3.184294,-0.003186745,-0.0058087995,1.5952884
88665.450454,0.009156801,-0.011555905,1.1944903,0.004833385,-0.021914018,3.184294,-0.0031811628,-0.0155195445,2.3901448,nacc
88665.450454,0.009156801,-0.011555905,1.1944903,0.0069198566,-0.021829613,3.1858237,-0.0031811628,-0.0155195445,2.3901448
88665.450454,0.009156801,-0.011555905,1.1944903,0.0069198566,-0.021829613,3.1858237,-0.0009639668,-0.0116763795,1.9906532,nacc
88665.450454,0.0078838235,-0.010153233,1.1951705,0.0069198566,-0.021829613,3.1858237,-0.0009639668,-0.0116763795,1.9906532
88665.470833,0.0078838235,-0.010153233,1.1951705,0.0069198566,-0.021829613,3.1858237,-0.004911296,-0.01811835,1.9929936,nacc
88665.470833,0.0078838235,-0.010153233,1.1951705,0.003442188,-0.025734557,3.1843102,-0.004911296,-0.01811835,1.9929936
88665.470833,0.0078838235,-0.010153233,1.1951705,0.003442188,-0.025734557,3.1843102,-0.0030339684,-0.01364115,1.5938042,nacc
88665.470833,0.0064761564,-0.012093407,1.590506,0.003442188,-0.025734557,3.1843102,-0.0030339684,-0.01364115,1.5938042
88665.491311,0.0064761564,-0.012093407,1.590506,0.003442188,-0.025734557,3.1843102,0.001617155,-0.012891688,1.594961,nacc
88665.491311,0.0064761564,-0.012093407,1.590506,0.008093311,-0.024985095,3.185467,0.001617155,-0.012891688,1.594961
88665.491311,0.0064761564,-0.012093407,1.590506,0.008093311,-0.024985095,3.185467,0.004343598,-0.008376185,1.1955668,nacc
88665.491311,0.003749713,-0.01660891,1.9899002,0.008093311,-0.024985095,3.185467,0.004343598,-0.008376185,1.1955668
88665.511796,0.003749713,-0.01660891,1.9899002,0.008093311,-0.024985095,3.185467,0.005267574,-0.016134864,1.9892896,nacc
88665.511796,0.003749713,-0.01660891,1.9899002,0.010827432,-0.028737323,3.5802028,0.005267574,-0.016134864,1.9892896
88665.511796,0.003749713,-0.01660891,1.9899002,0.010827432,-0.028737323,3.5802028,0.0047850953,-0.008176345,1.1955057,nacc
88665.511796,0.0032064056,-0.016910562,1.9898087,0.010827432,-0.028737323,3.5802028,0.0047850953,-0.008176345,1.1955057
88665.53225,0.0032064056,-0.016910562,1.9898087,0.010827432,-0.028737323,3.5802028,0.005078073,-0.010870245,1.9867591,nacc
88665.53225,0.0032064056,-0.016910562,1.9898087,0.0095180115,-0.022556407,3.5774686,0.005078073,-0.010870245,1.9867591
88665.53225,0.0032064056,-0.016910562,1.9898087,0.0095180115,-0.022556407,3.5774686,0.004915731,-0.009236688,1.1950849,nacc
88665.53225,0.0025158108,-0.016104743,1.9899241,0.0095180115,-0.022556407,3.5774686,0.004915731,-0.009236688,1.1950849
88665.552753,0.0025158108,-0.016104743,1.9899241,0.0095180115,-0.022556407,3.5774686,0.0016854666,-0.025098175,1.9872537,nacc
88665.552753,0.0025158108,-0.016104743,1.9899241,0.0059217815,-0.036937054,3.5777597,0.0016854666,-0.025098175,1.9872537
88665.552753,0.0025158108,-0.016104743,1.9899241,0.0059217815,-0.036937054,3.5777597,0.0023184938,-0.025623254,1.9883417,nacc
88665.552753,0.0036032877,-0.0113138,1.589418,0.0059217815,-0.036937054,3.5777597,0.0023184938,-0.025623254,1.9883417
88665.57315,0.0036032877,-0.0113138,1.589418,0.0059217815,-0.036937054,3.5777597,0.0017098743,-0.01919991,1.9939766,nacc
88665.57315,0.0036032877,-0.0113138,1.589418,0.0072420402,-0.02627448,3.1844323,0.0017098743,-0.01919991,1.9939766
88665.57315,0.0036032877,-0.0113138,1.589418,0.0072420402,-0.02627448,3.1844323,0.0032875305,-0.0151060475,1.5959957,nacc
88665.57315,0.0039545097,-0.011168432,1.5884366,0.0072420402,-0.02627448,3.1844323,0.0032875305,-0.0151060475,1.5959957
88665.59356,0.0039545097,-0.011168432,1.5884366,0.0072420402,-0.02627448,3.1844323,-0.002483099,-0.0060945293,1.5976096,nacc
88665.59356,0.0039545097,-0.011168432,1.5884366,0.0027436328,-0.012761856,2.7876072,-0.002483099,-0.0060945293,1.5976096
88665.59356,0.0039545097,-0.011168432,1.5884366,0.0027436328,-0.012761856,2.7876072,-0.0012480121,-0.0016148491,1.1988708,nacc
88665.59356,0.003991645,-0.011147007,1.5887364,0.0027436328,-0.012761856,2.7876072,-0.0012480121,-0.0016148491,1.1988708
88665.614025,0.003991645,-0.011147007,1.5887364,0.0027436328,-0.012761856,2.7876072,0.00023087673,-0.006910993,0.7947279,nacc
88665.614025,0.003991645,-0.011147007,1.5887364,0.0042225216,-0.018058,2.3834643,0.00023087673,-0.006910993,0.7947279
88665.614025,0.003991645,-0.011147007,1.5887364,0.0042225216,-0.018058,2.3834643,0.0022347316,-0.003033773,0.39623547,nacc
88665.614025,0.00198779,-0.015024227,1.9872289,0.0042225216,-0.018058,2.3834643,0.0022347316,-0.003033773,0.39623547
88665.634466,0.00198779,-0.015024227,1.9872289,0.0042225216,-0.018058,2.3834643,0.0012998912,-0.01338059,1.2021341,nacc
88665.634466,0.00198779,-0.015024227,1.9872289,0.004629765,-0.0236113,2.7910233,0.0012998912,-0.01338059,1.2021341
88665.634466,0.00198779,-0.015024227,1.9872289,0.004629765,-0.0236113,2.7910233,0.002611767,-0.008952666,0.80364037,nacc
88665.634466,0.0020179981,-0.014658634,1.9873829,0.004629765,-0.0236113,2.7910233,0.002611767,-0.008952666,0.80364037
88665.654916,0.0020179981,-0.014658634,1.9873829,0.004629765,-0.0236113,2.7910233,0.004899404,-0.019949367,1.1995354,nacc
88665.654916,0.0020179981,-0.014658634,1.9873829,0.007720224,-0.027074846,2.7890863,0.004899404,-0.019949367,1.1995354
88665.654916,0.0020179981,-0.014658634,1.9873829,0.007720224,-0.027074846,2.7890863,0.0013869014,-0.016568992,0.8000848,nacc
88665.654916,0.002360721,-0.0121374605,1.9874406,0.007720224,-0.027074846,2.7890863,0.0013869014,-0.016568992,0.8000848
88665.675396,0.002360721,-0.0121374605,1.9874406,0.007720224,-0.027074846,2.7890863,-0.0009225439,-0.022225339,1.5946305,nacc
88665.675396,0.002360721,-0.0121374605,1.9874406,0.002509141,-0.030368926,3.1835706,-0.0009225439,-0.022225339,1.5946305
88665.675396,0.002360721,-0.0121374605,1.9874406,0.002509141,-0.030368926,3.1835706,0.00022222707,-0.017407153,1.1961895,nacc
88665.675396,0.002286914,-0.012961772,1.9873811,0.002509141,-0.030368926,3.1835706,0.00022222707,-0.017407153,1.1961895
88665.695836,0.002286914,-0.012961772,1.9873811,0.002509141,-0.030368926,3.1835706,-0.0024832091,-0.026130285,1.9953266,nacc
88665.695836,0.002286914,-0.012961772,1.9873811,0.0023905789,-0.032102343,3.188527,-0.0024832091,-0.026130285,1.9953266
88665.695836,0.002286914,-0.012961772,1.9873811,0.0023905789,-0.032102343,3.188527,-0.0014700021,-0.022283643,1.5966845,nacc
88665.695836,0.003860581,-0.009818698,1.5918427,0.0023905789,-0.032102343,3.188527,-0.0014700021,-0.022283643,1.5966845
88665.716295,0.003860581,-0.009818698,1.5918427,0.0023905789,-0.032102343,3.188527,-0.007761948,-0.029780703,1.9996413,nacc
88665.716295,0.003860581,-0.009818698,1.5918427,-0.0031426866,-0.03529461,3.1933508,-0.007761948,-0.029780703,1.9996413
88665.716295,0.003860581,-0.009818698,1.5918427,-0.0031426866,-0.03529461,3.1933508,-0.00027857302,-0.020732157,1.1982692,nacc
88665.716295,0.0028051182,-0.009402276,1.591719,-0.0031426866,-0.03529461,3.1933508,-0.00027857302,-0.020732157,1.1982692
88665.736823,0.0028051182,-0.009402276,1.591719,-0.0031426866,-0.03529461,3.1933508,-0.007880509,-0.026656087,1.9978057,nacc
88665.736823,0.0028051182,-0.009402276,1.591719,-0.0033121537,-0.032271806,3.1914644,-0.007880509,-0.026656087,1.9978057
88665.736823,0.0028051182,-0.009402276,1.591719,-0.0033121537,-0.032271806,3.1914644,-0.0006051678,-0.019564774,1.1979796,nacc
88665.736823,0.003284429,-0.01011151,1.5919577,-0.0033121537,-0.032271806,3.1914644,-0.0006051678,-0.019564774,1.1979796
88665.75726,0.003284429,-0.01011151,1.5919577,-0.0033121537,-0.032271806,3.1914644,-0.003653382,-0.024043813,1.9939864,nacc
88665.75726,0.003284429,-0.01011151,1.5919577,0.0010676901,-0.029557722,3.1875432,-0.003653382,-0.024043813,1.9939864
88665.75726,0.003284429,-0.01011151,1.5919577,0.0010676901,-0.029557722,3.1875432,-0.0016405017,-0.02033355,1.5952688,nacc
88665.75726,0.0027081918,-0.009224172,1.5922743,0.0010676901,-0.029557722,3.1875432,-0.0016405017,-0.02033355,1.5952688
88665.777842,0.0027081918,-0.009224172,1.5922743,0.0010676901,-0.029557722,3.1875432,-0.0036533813,-0.028338602,1.996975,nacc
88665.777842,0.0027081918,-0.009224172,1.5922743,0.0009149743,-0.033038024,3.190939,-0.0036533813,-0.028338602,1.996975
88665.777842,0.0027081918,-0.009224172,1.5922743,0.0009149743,-0.033038024,3.190939,-0.00062095304,-0.019943638,1.1974002,nacc
88665.777842,0.0031474978,-0.009223592,1.5925881,0.0009149743,-0.033038024,3.190939,-0.00062095304,-0.019943638,1.1974002
88665.79808,0.0031474978,-0.009223592,1.5925881,0.0009149743,-0.033038024,3.190939,-0.0045696795,-0.031683587,1.997297,nacc
88665.79808,0.0031474978,-0.009223592,1.5925881,0.0007622579,-0.0363321,3.191261,-0.0045696795,-0.031683587,1.997297
88665.79808,0.0031474978,-0.009223592,1.5925881,0.0007622579,-0.0363321,3.191261,-0.0025063285,-0.024581753,1.5956606,nacc
88665.79808,0.0047274404,-0.0043309494,1.1933607,0.0007622579,-0.0363321,3.191261,-0.0025063285,-0.024581753,1.5956606
88665.818552,0.0047274404,-0.0043309494,1.1933607,0.0007622579,-0.0363321,3.191261,-0.0019265683,-0.038033836,2.001739,nacc
88665.818552,0.0047274404,-0.0043309494,1.1933607,0.0046839532,-0.03848951,2.7963583,-0.0019265683,-0.038033836,2.001739
88665.818552,0.0047274404,-0.0043309494,1.1933607,0.0046839532,-0.03848951,2.7963583,0.0018606219,-0.014026238,0.7980461,nacc
88665.818552,0.0047912393,-0.0040544267,1.1928424,0.0046839532,-0.03848951,2.7963583,0.0018606219,-0.014026238,0.7980461
88665.838996,0.0047912393,-0.0040544267,1.1928424,0.0046839532,-0.03848951,2.7963583,-0.0015193252,-0.024382621,1.5990691,nacc
88665.838996,0.0047912393,-0.0040544267,1.1928424,0.0047348584,-0.02565278,2.3922122,-0.0015193252,-0.024382621,1.5990691
88665.838996,0.0047912393,-0.0040544267,1.1928424,0.0047348584,-0.02565278,2.3922122,0.00203293,-0.013000919,0.7986405,nacc
88665.838996,0.004517121,-0.00492703,1.1920952,0.0047348584,-0.02565278,2.3922122,0.00203293,-0.013000919,0.7986405
88665.867235,0.004517121,-0.00492703,1.1920952,0.0047348584,-0.02565278,2.3922122,0.0018732818,-0.020475043,1.5974405,nacc
88665.867235,0.004517121,-0.00492703,1.1920952,0.008178371,-0.020370755,2.390278,0.0018732818,-0.020475043,1.5974405
88665.867235,0.004517121,-0.00492703,1.1920952,0.008178371,-0.020370755,2.390278,0.0037874202,-0.016434727,1.197987,nacc
88665.867235,0.004390951,-0.0039360276,1.1922911,0.008178371,-0.020370755,2.390278,0.0037874202,-0.016434727,1.197987
88665.888146,0.004390951,-0.0039360276,1.1922911,0.008178371,-0.020370755,2.390278,0.0017714729,-0.01845623,1.5960329,nacc
88665.888146,0.004390951,-0.0039360276,1.1922911,0.008178373,-0.018810092,2.3887177,0.0017714729,-0.01845623,1.5960329
88665.888146,0.004390951,-0.0039360276,1.1922911,0.008178373,-0.018810092,2.3887177,0.003358168,-0.0137509145,1.1968603,nacc
88665.888146,0.004820205,-0.0050591775,1.1918573,0.008178373,-0.018810092,2.3887177,0.003358168,-0.0137509145,1.1968603
88665.90802,0.004820205,-0.0050591775,1.1918573,0.008178373,-0.018810092,2.3887177,-0.0034195774,-0.018493015,1.1941804,nacc
88665.90802,0.004820205,-0.0050591775,1.1918573,0.0035472822,-0.019406836,1.9867634,-0.0034195774,-0.018493015,1.1941804
88665.90802,0.004820205,-0.0050591775,1.1918573,0.0035472822,-0.019406836,1.9867634,-0.0014256008,-0.014211794,0.79506373,nacc
88665.90802,0.004972883,-0.0051950417,1.1916996,0.0035472822,-0.019406836,1.9867634,-0.0014256008,-0.014211794,0.79506373
88665.928961,0.004972883,-0.0051950417,1.1916996,0.0035472822,-0.019406836,1.9867634,0.00073661236,-0.015266592,1.1947913,nacc
88665.928961,0.004972883,-0.0051950417,1.1916996,0.0074489447,-0.016638562,1.9867125,0.00073661236,-0.015266592,1.1947913
88665.928961,0.004972883,-0.0051950417,1.1916996,0.0074489447,-0.016638562,1.9867125,0.002570033,-0.010798696,0.79536736,nacc
88665.928961,0.0048789117,-0.0058398657,1.1913451,0.0074489447,-0.016638562,1.9867125,0.002570033,-0.010798696,0.79536736
88665.948969,0.0048789117,-0.0058398657,1.1913451,0.0074489447,-0.016638562,1.9867125,0.00014315057,-0.008969745,0.8002082,nacc
88665.948969,0.0048789117,-0.0058398657,1.1913451,0.0032050654,-0.015400082,1.9928255,0.00014315057,-0.008969745,0.8002082
88665.948969,0.0048789117,-0.0058398657,1.1913451,0.0032050654,-0.015400082,1.9928255,0.0019671037,-0.004020404,0.40065444,nacc
88665.948969,0.0012379618,-0.011379678,1.5921711,0.0032050654,-0.015400082,1.9928255,0.0019671037,-0.004020404,0.40065444
88665.969421,0.0012379618,-0.011379678,1.5921711,0.0032050654,-0.015400082,1.9928255,-0.00036590453,-0.009973078,0.795625,nacc
88665.969421,0.0012379618,-0.011379678,1.5921711,0.0027469161,-0.017828768,1.9881405,-0.00036590453,-0.009973078,0.795625
88665.969421,0.0012379618,-0.011379678,1.5921711,0.0027469161,-0.017828768,1.9881405,0.003089407,-0.002953493,0.39619315,nacc
88665.969421,0.0034097377,-0.008032588,1.1926082,0.0027469161,-0.017828768,1.9881405,0.003089407,-0.002953493,0.39619315
88665.990294,0.0034097377,-0.008032588,1.1926082,0.0027469161,-0.017828768,1.9881405,-0.010086625,-0.005266594,0.797494,nacc
88665.990294,0.0034097377,-0.008032588,1.1926082,-0.004638327,-0.008645082,1.5903622,-0.010086625,-0.005266594,0.797494
88665.990294,0.0034097377,-0.008032588,1.1926082,-0.004638327,-0.008645082,1.5903622,-0.008541458,-0.0010630805,0.39824188,nacc
88665.990294,0.0039031312,-0.0075820014,1.1921203,-0.004638327,-0.008645082,1.5903622,-0.008541458,-0.0010630805,0.39824188
88666.010346,0.0039031312,-0.0075820014,1.1921203,-0.004638327,-0.008645082,1.5903622,-0.0150940865,-0.012058376,1.1970878,nacc
88666.010346,0.0039031312,-0.0075820014,1.1921203,-0.009747599,-0.015487771,1.989294,-0.0150940865,-0.012058376,1.1970878
88666.010346,0.0039031312,-0.0075820014,1.1921203,-0.009747599,-0.015487771,1.989294,-0.0034529266,0.0059366333,-0.001188755,nacc
88666.010346,0.0038220605,-0.008349895,1.1916012,-0.009747599,-0.015487771,1.989294,-0.0034529266,0.0059366333,-0.001188755
88666.030746,0.0038220605,-0.008349895,1.1916012,-0.009747599,-0.015487771,1.989294,-0.0018359893,-0.0032619012,0.8038419,nacc
88666.030746,0.0038220605,-0.008349895,1.1916012,0.003306876,-0.006793106,1.595641,-0.0018359893,-0.0032619012,0.8038419
88666.030746,0.0038220605,-0.008349895,1.1916012,0.003306876,-0.006793106,1.595641,-0.0029959604,0.0062967353,-0.00036382675,nacc
88666.030746,0.0038232438,-0.008302753,1.1912342,0.003306876,-0.006793106,1.595641,-0.0029959604,0.0062967353,-0.00036382675
88666.051313,0.0038232438,-0.008302753,1.1912342,0.003306876,-0.006793106,1.595641,-0.008081932,-0.003092434,0.799547,nacc
88666.051313,0.0038232438,-0.008302753,1.1912342,-0.0022263906,-0.0066745444,1.5909389,-0.008081932,-0.003092434,0.799547
88666.051313,0.0038232438,-0.008302753,1.1912342,-0.0022263906,-0.0066745444,1.5909389,-0.002066541,0.0054755732,-0.00033152103,nacc
88666.051313,0.0031992563,-0.00860151,1.1913037,-0.0022263906,-0.0066745444,1.5909389,-0.002066541,0.0054755732,-0.00033152103
88666.071688,0.0031992563,-0.00860151,1.1913037,-0.0022263906,-0.0066745444,1.5909389,-0.006639828,-0.0065901345,0.80307907,nacc
88666.071688,0.0031992563,-0.00860151,1.1913037,-0.00058066525,-0.009866812,1.5934019,-0.006639828,-0.0065901345,0.80307907
88666.071688,0.0031992563,-0.00860151,1.1913037,-0.00058066525,-0.009866812,1.5934019,-0.0026355959,0.0058130333,0.0007530451,nacc
88666.071688,0.0042264606,-0.0087353485,1.1903211,-0.00058066525,-0.009866812,1.5934019,-0.0026355959,0.0058130333,0.0007530451
88666.09211,0.0042264606,-0.0087353485,1.1903211,-0.00058066525,-0.009866812,1.5934019,-0.0038915882,-0.001921609,0.8048941,nacc
88666.09211,0.0042264606,-0.0087353485,1.1903211,0.001913048,-0.006063679,1.5949625,-0.0038915882,-0.001921609,0.8048941
88666.09211,0.0042264606,-0.0087353485,1.1903211,0.001913048,-0.006063679,1.5949625,-0.0031801895,0.0014146804,0.39918238,nacc
88666.09211,0.0051273922,-0.004489712,0.7917389,0.001913048,-0.006063679,1.5949625,-0.0031801895,0.0014146804,0.39918238
88666.112595,0.0051273922,-0.004489712,0.7917389,0.001913048,-0.006063679,1.5949625,-0.0074335183,-0.0066049104,1.1989818,nacc
88666.112595,0.0051273922,-0.004489712,0.7917389,-0.0005974164,-0.006114584,1.590464,-0.0074335183,-0.0066049104,1.1989818
88666.112595,0.0051273922,-0.004489712,0.7917389,-0.0005974164,-0.006114584,1.590464,-0.005461833,-0.0022701172,0.79855114,nacc
88666.112595,0.0048644166,-0.0038444668,0.79191285,-0.0005974164,-0.006114584,1.590464,-0.005461833,-0.0022701172,0.79855114
88666.133123,0.0048644166,-0.0038444668,0.79191285,-0.0005974164,-0.006114584,1.590464,-0.0038540398,-0.010882946,1.2041588,nacc
88666.133123,0.0048644166,-0.0038444668,0.79191285,0.0030838733,-0.010545336,1.5964046,-0.0038540398,-0.010882946,1.2041588
88666.133123,0.0048644166,-0.0038444668,0.79191285,0.0030838733,-0.010545336,1.5964046,-0.0016335032,-0.0059805727,0.8037031,nacc
88666.133123,0.0047173765,-0.004564763,0.7927014,0.0030838733,-0.010545336,1.5964046,-0.0016335032,-0.0059805727,0.8037031
88666.153479,0.0047173765,-0.004564763,0.7927014,0.0030838733,-0.010545336,1.5964046,-0.0065004695,-0.01903177,1.607301,nacc
88666.153479,0.0047173765,-0.004564763,0.7927014,0.00043744376,-0.018643254,1.9990377,-0.0065004695,-0.01903177,1.607301
88666.153479,0.0047173765,-0.004564763,0.7927014,0.00043744376,-0.018643254,1.9990377,-0.0046534343,-0.014605571,1.2064483,nacc
88666.153479,0.005090878,-0.0040376834,0.7925895,0.00043744376,-0.018643254,1.9990377,-0.0046534343,-0.014605571,1.2064483
88666.173986,0.005090878,-0.0040376834,0.7925895,0.00043744376,-0.018643254,1.9990377,-0.00931965,-0.020459753,1.5972149,nacc
88666.173986,0.005090878,-0.0040376834,0.7925895,-0.0021781155,-0.020173049,1.9893589,-0.00931965,-0.020459753,1.5972149
88666.173986,0.005090878,-0.0040376834,0.7925895,-0.0021781155,-0.020173049,1.9893589,-0.0072746174,-0.015188947,1.196547,nacc
88666.173986,0.005096502,-0.004984101,0.79281193,-0.0021781155,-0.020173049,1.9893589,-0.0072746174,-0.015188947,1.196547
88666.194872,0.005096502,-0.004984101,0.79281193,-0.0021781155,-0.020173049,1.9893589,-0.0014621373,-0.014601019,1.2061974,nacc
88666.194872,0.005096502,-0.004984101,0.79281193,0.005628492,-0.014721558,1.5982904,-0.0014621373,-0.014601019,1.2061974
88666.194872,0.005096502,-0.004984101,0.79281193,0.005628492,-0.014721558,1.5982904,0.00054588774,-0.009609476,0.8052215,nacc
88666.194872,0.0050826045,-0.005112082,0.79306895,0.005628492,-0.014721558,1.5982904,0.00054588774,-0.009609476,0.8052215
88666.215069,0.0050826045,-0.005112082,0.79306895,0.005628492,-0.014721558,1.5982904,-0.0038989843,-0.0044125146,0.80471236,nacc
88666.215069,0.0050826045,-0.005112082,0.79306895,0.0016417702,-0.009728218,1.5977813,-0.0038989843,-0.0044125146,0.80471236
88666.215069,0.0050826045,-0.005112082,0.79306895,0.0016417702,-0.009728218,1.5977813,-0.0015262159,0.00075944513,0.403803,nacc
88666.215069,0.0031679862,-0.010487664,1.1939783,0.0016417702,-0.009728218,1.5977813,-0.0015262159,0.00075944513,0.403803
88666.235284,0.0031679862,-0.010487664,1.1939783,0.0016417702,-0.009728218,1.5977813,-0.0031354013,-0.01152648,0.80435616,nacc
88666.235284,0.0031679862,-0.010487664,1.1939783,0.0019472027,-0.017605765,1.5977306,-0.0031354013,-0.01152648,0.80435616
88666.235284,0.0031679862,-0.010487664,1.1939783,0.0019472027,-0.017605765,1.5977306,-0.001061762,-0.0066567333,0.4037485,nacc
88666.235284,0.0030089647,-0.010949031,1.1939821,0.0019472027,-0.017605765,1.5977306,-0.001061762,-0.0066567333,0.4037485
88666.25575,0.0030089647,-0.010949031,1.1939821,0.0019472027,-0.017605765,1.5977306,-0.0068876296,-0.011835197,1.204252,nacc
88666.25575,0.0030089647,-0.010949031,1.1939821,-0.0015504981,-0.018118104,1.9976263,-0.0068876296,-0.011835197,1.204252
88666.25575,0.0030089647,-0.010949031,1.1939821,-0.0015504981,-0.018118104,1.9976263,-0.0048963376,-0.0057178168,0.80291474,nacc
88666.25575,0.0033458397,-0.012400287,1.1947116,-0.0015504981,-0.018118104,1.9976263,-0.0048963376,-0.0057178168,0.80291474
88666.276199,0.0033458397,-0.012400287,1.1947116,-0.0015504981,-0.018118104,1.9976263,-0.0016597963,-0.015366398,1.2065277,nacc
88666.276199,0.0033458397,-0.012400287,1.1947116,0.0034737133,-0.022056548,2.000513,-0.0016597963,-0.015366398,1.2065277
88666.276199,0.0033458397,-0.012400287,1.1947116,0.0034737133,-0.022056548,2.000513,0.0012125294,-0.01111308,0.8053621,nacc
88666.276199,0.002261184,-0.010943468,1.195151,0.0034737133,-0.022056548,2.000513,0.0012125294,-0.01111308,0.8053621
88666.296708,0.002261184,-0.010943468,1.195151,0.0034737133,-0.022056548,2.000513,-0.0061240485,-0.018250607,1.2030134,nacc
88666.296708,0.002261184,-0.010943468,1.195151,-0.0016523092,-0.023820838,1.9975586,-0.0061240485,-0.018250607,1.2030134
88666.296708,0.002261184,-0.010943468,1.195151,-0.0016523092,-0.023820838,1.9975586,-0.003919079,-0.012954267,0.8018488,nacc
88666.296708,0.0022667686,-0.010866572,1.1957098,-0.0016523092,-0.023820838,1.9975586,-0.003919079,-0.012954267,0.8018488
